"trial_id","sx","sy","px","py","pz","duration","timestamp","trial_onset","label","label_onset","subject_nr.x","AOI_visited","subject_nr.y","fat_craving","sugar_craving","Block","practice","Arrow_Direction","Arrow_Position","Congruence","Left_Picture","Right_Picture","Pair_Number","response","response_time","accuracy","part_ID"
1,0.566437423229218,0.527750015258789,30.0952091217041,131.958557128906,41.1902046203613,249.997,2640,1614.003,"Pictures_Onset",1536,"07","Healthy",7,0,10,1,"no","up","Left",1,"FF","FL",1,"up",440,1,"Guest07"
2,0.414538443088531,0.492769241333008,-42.3392333984375,140.739761352539,44.3869209289551,200,1262.003,232.998,"Pictures_Onset",158.003,"07","Healthy",7,0,10,2,"no","up","Left",0,"FL","FF",1,"up",453,1,"Guest07"
2,0.613703668117523,0.481444418430328,52.6700019836426,143.644088745117,45.4437026977539,134.003,1527.002,497.997,"Pictures_Onset",423.002,"07","Salty",7,0,10,2,"no","up","Left",0,"FL","FF",1,"up",453,1,"Guest07"
2,0.61493331193924,0.479066669940948,53.1619987487793,144.203659057617,45.6496658325195,149.991,1694.003,664.998,"Pictures_Onset",590.003,"07","Salty",7,0,10,2,"no","up","Left",0,"FL","FF",1,"up",453,1,"Guest07"
2,0.411958396434784,0.479499995708466,-43.5441665649414,144.12353515625,45.6185417175293,249.996,1927.002,897.997,"Pictures_Onset",823.002,"07","Healthy",7,0,10,2,"no","up","Left",0,"FL","FF",1,"up",453,1,"Guest07"
2,0.612785696983337,0.480928599834442,52.1861877441406,143.754760742188,45.4859504699707,216,2242.995,1213.99,"Pictures_Onset",1138.995,"07","Salty",7,0,10,2,"no","up","Left",0,"FL","FF",1,"up",453,1,"Guest07"
5,0.624000012874603,0.509592652320862,57.5225982666016,136.499633789062,42.8451843261719,132.006,1343.002,317.005,"Pictures_Onset",239.002,"07","Healthy",7,0,10,2,"no","up","Left",1,"FF","FL",2,"up",547,1,"Guest07"
5,0.626000046730042,0.508550763130188,58.4436187744141,136.77116394043,42.9436264038086,365.991,1508.006,482.009,"Pictures_Onset",404.006,"07","Healthy",7,0,10,2,"no","up","Left",1,"FF","FL",2,"up",547,1,"Guest07"
5,0.585909128189087,0.532787919044495,39.3875770568848,130.695449829102,40.732120513916,166.989,1924.006,898.009,"Pictures_Onset",820.006,"07","Healthy",7,0,10,2,"no","up","Left",1,"FF","FL",2,"up",547,1,"Guest07"
5,0.583818197250366,0.539333283901215,38.3327293395996,129.008193969727,40.1199989318848,167.002,2124.006,1098.009,"Pictures_Onset",1020.006,"07","Healthy",7,0,10,2,"no","up","Left",1,"FF","FL",2,"up",547,1,"Guest07"
5,0.395685136318207,0.491592615842819,-51.2688903808594,141.054443359375,44.5022201538086,281.997,2524.006,1498.009,"Pictures_Onset",1420.006,"07","Salty",7,0,10,2,"no","up","Left",1,"FF","FL",2,"up",547,1,"Guest07"
7,0.621097147464752,0.516374945640564,56.1672210693359,134.817367553711,42.2329216003418,384,1271.002,248.999,"Pictures_Onset",167.002,"07","Healthy",7,0,10,4,"no","down","Right",0,"FF","FL",2,"down",478,1,"Guest07"
7,0.372128188610077,0.49194872379303,-62.5025634765625,140.972305297852,44.4715385437012,200,1836.992,814.989,"Pictures_Onset",732.992,"07","Salty",7,0,10,4,"no","down","Right",0,"FF","FL",2,"down",478,1,"Guest07"
7,0.371380925178528,0.495333313941956,-62.8726997375488,140.113006591797,44.1592063903809,333.005,2069.99,1047.987,"Pictures_Onset",965.99,"07","Salty",7,0,10,4,"no","down","Right",0,"FF","FL",2,"down",478,1,"Guest07"
7,0.584098041057587,0.522000014781952,38.5113754272461,133.392944335938,41.7135314941406,267.008,2468.992,1446.989,"Pictures_Onset",1364.992,"07","Healthy",7,0,10,4,"no","down","Right",0,"FF","FL",2,"down",478,1,"Guest07"
8,0.608481526374817,0.512888848781586,50.1924018859863,135.693145751953,42.5522232055664,283.008,1422.003,399.001,"Pictures_Onset",318.003,"07","Salty",7,0,10,1,"no","down","Right",1,"FL","FF",2,"down",482,1,"Guest07"
9,0.631716728210449,0.502116560935974,61.2261657714844,138.397506713867,43.535831451416,316.006,1392,365.99,"Pictures_Onset",288,"07","Healthy",7,0,10,3,"no","up","Left",1,"FF","FL",3,"up",416,1,"Guest07"
9,0.615444481372833,0.505407392978668,53.4312973022461,137.569641113281,43.2346343994141,282.995,2141.005,1114.995,"Pictures_Onset",1037.005,"07","Healthy",7,0,10,3,"no","up","Left",1,"FF","FL",3,"up",416,1,"Guest07"
12,0.38784447312355,0.49615553021431,-55.0313377380371,139.895111083984,44.0802192687988,232.998,1228.992,199.002,"Pictures_Onset",124.992,"07","Healthy",7,0,10,2,"no","down","Right",1,"FL","FF",3,"down",519,1,"Guest07"
12,0.355192959308624,0.518508791923523,-70.6147384643555,134.259475708008,42.0289497375488,299.994,1512,482.01,"Pictures_Onset",408,"07","Healthy",7,0,10,2,"no","down","Right",1,"FL","FF",3,"down",519,1,"Guest07"
12,0.645111262798309,0.490676820278168,67.5513153076172,141.256072998047,44.5762596130371,533.005,2010.995,981.005,"Pictures_Onset",906.995,"07","Salty",7,0,10,2,"no","down","Right",1,"FL","FF",3,"down",519,1,"Guest07"
12,0.566212117671967,0.507757544517517,30.0099983215332,137.007873535156,43.0287895202637,167.002,2592.998,1563.008,"Pictures_Onset",1488.998,"07","Salty",7,0,10,2,"no","down","Right",1,"FL","FF",3,"down",519,1,"Guest07"
12,0.564055621623993,0.502888858318329,28.9680576324463,138.215286254883,43.4688835144043,183.002,2792.998,1763.008,"Pictures_Onset",1688.998,"07","Salty",7,0,10,2,"no","down","Right",1,"FL","FF",3,"down",519,1,"Guest07"
13,0.554138958454132,0.50683331489563,24.2765731811523,137.210998535156,43.1032409667969,582.003,1654.003,632.998,"Pictures_Onset",550.003,"07","Healthy",7,0,10,4,"no","up","Left",1,"FF","FL",4,"down",444,0,"Guest07"
13,0.553023278713226,0.512961268424988,23.7205467224121,135.691696166992,42.5506210327148,698.995,2269.005,1248,"Pictures_Onset",1165.005,"07","Healthy",7,0,10,4,"no","up","Left",1,"FF","FL",4,"down",444,0,"Guest07"
16,0.398757547140121,0.500090897083282,-49.7651481628418,138.933334350586,43.7299957275391,166.003,1285.005,249.997,"Pictures_Onset",181.005,"07","Healthy",7,0,10,3,"no","down","Right",1,"FL","FF",4,"down",396,1,"Guest07"
16,0.612652778625488,0.483249992132187,52.1020812988281,143.149307250977,45.2641639709473,183.002,1534.003,498.995,"Pictures_Onset",430.003,"07","Salty",7,0,10,3,"no","down","Right",1,"FL","FF",4,"down",396,1,"Guest07"
16,0.387507319450378,0.512304365634918,-55.1686897277832,135.839553833008,42.6052169799805,366.003,2145.997,1110.989,"Pictures_Onset",1041.997,"07","Healthy",7,0,10,3,"no","down","Right",1,"FL","FF",4,"down",396,1,"Guest07"
16,0.591347932815552,0.491362273693085,41.9782600402832,141.080444335938,44.5120315551758,364.992,2596.006,1560.998,"Pictures_Onset",1492.006,"07","Salty",7,0,10,3,"no","down","Right",1,"FL","FF",4,"down",396,1,"Guest07"
17,0.400600016117096,0.539680004119873,-48.9670600891113,128.958404541016,40.0998687744141,399.002,1544,449.997,"Pictures_Onset",440,"07","Salty",7,0,10,1,"no","up","Left",1,"FF","FL",5,"up",498,1,"Guest07"
17,0.627701699733734,0.535271883010864,59.3134269714355,130.067825317383,40.5030670166016,617.012,2008.998,914.995,"Pictures_Onset",904.998,"07","Healthy",7,0,10,1,"no","up","Left",1,"FF","FL",5,"up",498,1,"Guest07"
18,0.629155576229095,0.500666677951813,60.0155487060547,138.765106201172,43.668888092041,232.998,1656,632,"Pictures_Onset",552,"07","Salty",7,0,10,2,"no","up","Left",0,"FL","FF",5,"up",442,1,"Guest07"
18,0.373472303152084,0.47815278172493,-61.8177795410156,144.438613891602,45.735279083252,383.001,1989.005,965.005,"Pictures_Onset",885.005,"07","Healthy",7,0,10,2,"no","up","Left",0,"FL","FF",5,"up",442,1,"Guest07"
18,0.626840591430664,0.494043529033661,58.8840599060059,140.430282592773,44.2756462097168,366.003,2455.002,1431.002,"Pictures_Onset",1351.002,"07","Salty",7,0,10,2,"no","up","Left",0,"FL","FF",5,"up",442,1,"Guest07"
20,0.393151551485062,0.498409152030945,-52.4890899658203,139.326675415039,43.8730316162109,349.99,1339.008,315.008,"Pictures_Onset",235.008,"07","Healthy",7,0,10,4,"no","down","Right",1,"FL","FF",5,"down",594,1,"Guest07"
20,0.365095198154449,0.483928620815277,-65.8614273071289,142.949752807617,45.1928596496582,216.998,1721.997,697.997,"Pictures_Onset",617.997,"07","Healthy",7,0,10,4,"no","down","Right",1,"FL","FF",5,"down",594,1,"Guest07"
20,0.3463194668293,0.481236189603806,-74.7869415283203,143.647506713867,45.4456939697266,383.002,1970.995,946.995,"Pictures_Onset",866.995,"07","Healthy",7,0,10,4,"no","down","Right",1,"FL","FF",5,"down",594,1,"Guest07"
21,0.391062498092651,0.476000040769577,-53.4852104187012,144.979995727539,45.931037902832,249.997,1342.003,249.997,"Pictures_Onset",238.003,"07","Salty",7,0,10,2,"no","down","Left",1,"FF","FL",6,"down",499,1,"Guest07"
21,0.644980430603027,0.474647015333176,67.5292205810547,145.336471557617,46.0621566772461,265.997,1675.008,583.002,"Pictures_Onset",571.008,"07","Healthy",7,0,10,2,"no","down","Left",1,"FF","FL",6,"down",499,1,"Guest07"
21,0.622857213020325,0.47583332657814,57.004997253418,145.018814086914,45.9447555541992,215.001,1975.002,882.996,"Pictures_Onset",871.002,"07","Healthy",7,0,10,2,"no","down","Left",1,"FF","FL",6,"down",499,1,"Guest07"
21,0.3719841837883,0.461539626121521,-62.549690246582,148.626190185547,47.258415222168,333.005,2256.998,1164.992,"Pictures_Onset",1152.998,"07","Salty",7,0,10,2,"no","down","Left",1,"FF","FL",6,"down",499,1,"Guest07"
21,0.630861103534698,0.542194426059723,60.8327827453613,128.320831298828,39.8672142028809,182.003,2807.002,1714.996,"Pictures_Onset",1703.002,"07","Healthy",7,0,10,2,"no","down","Left",1,"FF","FL",6,"down",499,1,"Guest07"
22,0.559265196323395,0.551371157169342,26.6575794219971,125.997802734375,39.0224952697754,714.995,2258.01,1231.002,"Pictures_Onset",1154.01,"07","Salty",7,0,10,3,"no","down","Left",0,"FL","FF",6,"down",522,1,"Guest07"
25,0.620365142822266,0.51579350233078,55.805549621582,134.970153808594,42.2890434265137,334.003,1410.995,382.003,"Pictures_Onset",306.995,"07","Healthy",7,0,10,3,"no","down","Left",1,"FF","FL",7,"down",1176,1,"Guest07"
25,0.625138938426971,0.510597169399261,58.1231880187988,136.273208618164,42.762638092041,383.001,2110.989,1081.997,"Pictures_Onset",1006.989,"07","Healthy",7,0,10,3,"no","down","Left",1,"FF","FL",7,"down",1176,1,"Guest07"
28,0.382282048463821,0.485282003879547,-57.6674385070801,142.632568359375,45.0771751403809,200,1252.006,101.004,"Pictures_Onset",148.006,"07","Healthy",7,0,10,2,"no","up","Right",1,"FL","FF",7,"up",474,1,"Guest07"
28,0.62626314163208,0.486386001110077,58.6405296325684,142.361373901367,44.9782485961914,299.993,1517.005,366.003,"Pictures_Onset",413.005,"07","Salty",7,0,10,2,"no","up","Right",1,"FL","FF",7,"up",474,1,"Guest07"
28,0.595537006855011,0.52485191822052,43.950366973877,132.675170898438,41.4538879394531,282.995,1867.008,716.006,"Pictures_Onset",763.008,"07","Salty",7,0,10,2,"no","up","Right",1,"FL","FF",7,"up",474,1,"Guest07"
28,0.634861052036285,0.496888875961304,62.7305564880371,139.766403198242,44.0338859558105,183.001,2183.002,1032,"Pictures_Onset",1079.002,"07","Salty",7,0,10,2,"no","up","Right",1,"FL","FF",7,"up",474,1,"Guest07"
28,0.638291656970978,0.491583347320557,64.3166656494141,141.10041809082,44.5166702270508,117.004,2399.002,1248,"Pictures_Onset",1295.002,"07","Salty",7,0,10,2,"no","up","Right",1,"FL","FF",7,"up",474,1,"Guest07"
28,0.450703740119934,0.543888866901398,-25.0659255981445,127.907402038574,39.7188873291016,134.003,2782.003,1631.001,"Pictures_Onset",1678.003,"07","Healthy",7,0,10,2,"no","up","Right",1,"FL","FF",7,"up",474,1,"Guest07"
31,0.383999943733215,0.485076934099197,-56.9056396484375,142.693328857422,45.0989761352539,199.987,1491.008,449.011,"Pictures_Onset",387.008,"07","Salty",7,0,10,2,"no","up","Right",0,"FF","FL",8,"up",491,1,"Guest07"
31,0.631791651248932,0.478229165077209,61.2949981689453,144.436676025391,45.7331237792969,248.999,1774.003,732.006,"Pictures_Onset",670.003,"07","Healthy",7,0,10,2,"no","up","Right",0,"FF","FL",8,"up",491,1,"Guest07"
31,0.599242389202118,0.498909085988998,45.7542419433594,139.226364135742,43.8390922546387,166.003,2073.997,1032,"Pictures_Onset",969.997,"07","Healthy",7,0,10,2,"no","up","Right",0,"FF","FL",8,"up",491,1,"Guest07"
31,0.394121259450912,0.478560537099838,-52.0495452880859,144.320755004883,45.6921195983887,348.992,2307.008,1265.011,"Pictures_Onset",1203.008,"07","Salty",7,0,10,2,"no","up","Right",0,"FF","FL",8,"up",491,1,"Guest07"
34,0.62995833158493,0.481604129076004,60.3722953796387,143.567504882812,45.4179191589355,249.997,1352,315.994,"Pictures_Onset",248,"07","Salty",7,0,10,2,"no","down","Left",0,"FL","FF",9,"down",483,1,"Guest07"
34,0.382948696613312,0.474461555480957,-57.3087196350098,145.390762329102,46.0807723999023,200,1685.005,648.999,"Pictures_Onset",581.005,"07","Healthy",7,0,10,2,"no","down","Left",0,"FL","FF",9,"down",483,1,"Guest07"
34,0.382333338260651,0.484041690826416,-57.6649971008301,142.973754882812,45.2008285522461,116.992,1918.003,881.997,"Pictures_Onset",814.003,"07","Healthy",7,0,10,2,"no","down","Left",0,"FL","FF",9,"down",483,1,"Guest07"
34,0.634272634983063,0.487575709819794,62.5018157958984,142.07666015625,44.8739356994629,166.003,2118.003,1081.997,"Pictures_Onset",1014.003,"07","Salty",7,0,10,2,"no","down","Left",0,"FL","FF",9,"down",483,1,"Guest07"
37,0.408719271421432,0.494771897792816,-45.076488494873,140.251586914062,44.211051940918,298.995,1243.008,150.003,"Pictures_Onset",139.008,"07","Salty",7,0,10,2,"no","down","Left",1,"FF","FL",10,"down",514,1,"Guest07"
37,0.62584263086319,0.467685163021088,58.4239768981934,147.076919555664,46.694263458252,581.99,1675.008,582.003,"Pictures_Onset",571.008,"07","Healthy",7,0,10,2,"no","down","Left",1,"FF","FL",10,"down",514,1,"Guest07"
37,0.445033401250839,0.488683372735977,-27.7331657409668,141.793334960938,44.7714958190918,316.007,2656.998,1563.993,"Pictures_Onset",1552.998,"07","Salty",7,0,10,2,"no","down","Left",1,"FF","FL",10,"down",514,1,"Guest07"
39,0.618973433971405,0.507813394069672,55.1816024780273,136.969192504883,43.0161323547363,399.002,1370.995,349.005,"Pictures_Onset",266.995,"07","Healthy",7,0,10,4,"no","up","Right",0,"FF","FL",10,"up",502,1,"Guest07"
42,0.565666675567627,0.546444416046143,29.7381496429443,127.213706970215,39.4648170471191,133.99,1639.002,613.005,"Pictures_Onset",535.002,"07","Sugary",7,0,10,4,"no","up","Left",0,"FL","FS",11,"up",534,1,"Guest07"
42,0.566802501678467,0.542629718780518,30.2869148254395,128.214431762695,39.8283920288086,432.999,1805.99,779.993,"Pictures_Onset",701.99,"07","Sugary",7,0,10,4,"no","up","Left",0,"FL","FS",11,"up",534,1,"Guest07"
43,0.632356405258179,0.518459737300873,61.4844856262207,134.308731079102,42.0464324951172,465.997,1604.006,566.003,"Pictures_Onset",500.006,"07","Healthy",7,0,10,1,"no","down","Right",0,"FS","FL",11,"down",457,1,"Guest07"
43,0.398481458425522,0.500259220600128,-49.9368476867676,138.842590332031,43.6977806091309,283.008,2169.997,1131.994,"Pictures_Onset",1065.997,"07","Sugary",7,0,10,1,"no","down","Right",0,"FS","FL",11,"down",457,1,"Guest07"
43,0.377958297729492,0.461319446563721,-59.7536125183105,148.666091918945,47.273609161377,382.003,2487.002,1448.999,"Pictures_Onset",1383.002,"07","Sugary",7,0,10,1,"no","down","Right",0,"FS","FL",11,"down",457,1,"Guest07"
44,0.626944363117218,0.484277784824371,58.9442596435547,142.905944824219,45.1757431030273,283.008,1409.997,383.002,"Pictures_Onset",305.997,"07","Sugary",7,0,10,2,"no","down","Right",1,"FL","FS",11,"down",469,1,"Guest07"
44,0.366870403289795,0.556555509567261,-65.0107345581055,124.712577819824,38.5535202026367,282.995,1976,949.005,"Pictures_Onset",872,"07","Healthy",7,0,10,2,"no","down","Right",1,"FL","FS",11,"down",469,1,"Guest07"
44,0.572404742240906,0.527690470218658,33.0269050598145,131.985717773438,41.2014274597168,216,2342.003,1315.008,"Pictures_Onset",1238.003,"07","Sugary",7,0,10,2,"no","down","Right",1,"FL","FS",11,"down",469,1,"Guest07"
45,0.395249992609024,0.507305562496185,-51.4888916015625,137.113616943359,43.0702781677246,184,1352,315.008,"Pictures_Onset",248,"07","Sugary",7,0,10,4,"no","up","Left",1,"FS","FL",12,"up",407,1,"Guest07"
45,0.602950930595398,0.511921525001526,47.5009841918945,135.940582275391,42.6417655944824,549.005,1618.995,582.003,"Pictures_Onset",514.995,"07","Healthy",7,0,10,4,"no","up","Left",1,"FS","FL",12,"up",407,1,"Guest07"
45,0.431274145841599,0.51594078540802,-34.3171844482422,134.925018310547,42.2718544006348,733.005,2250.995,1214.003,"Pictures_Onset",1146.995,"07","Sugary",7,0,10,4,"no","up","Left",1,"FS","FL",12,"up",407,1,"Guest07"
46,0.622938275337219,0.495975315570831,57.0273971557617,139.946914672852,44.1000022888184,432,1334.003,299.993,"Pictures_Onset",230.003,"07","Sugary",7,0,10,1,"no","up","Left",0,"FL","FS",12,"up",457,1,"Guest07"
46,0.405634939670563,0.510158717632294,-46.5434989929199,136.383163452148,42.8020668029785,331.993,1850.01,816,"Pictures_Onset",746.01,"07","Healthy",7,0,10,1,"no","up","Left",0,"FL","FS",12,"up",457,1,"Guest07"
47,0.394939392805099,0.493424236774445,-51.6009063720703,140.619689941406,44.343936920166,167.001,1303.002,215.002,"Pictures_Onset",199.002,"07","Sugary",7,0,10,2,"no","down","Right",0,"FS","FL",12,"down",584,1,"Guest07"
47,0.369761884212494,0.463095217943192,-63.6947631835938,148.24382019043,47.1190490722656,100.006,1503.002,415.002,"Pictures_Onset",399.002,"07","Sugary",7,0,10,2,"no","down","Right",0,"FS","FL",12,"down",584,1,"Guest07"
47,0.365564078092575,0.467658072710037,-65.6483840942383,147.073974609375,46.6935081481934,632,1636.006,548.006,"Pictures_Onset",532.006,"07","Sugary",7,0,10,2,"no","down","Right",0,"FS","FL",12,"down",584,1,"Guest07"
47,0.620209634304047,0.490676283836365,55.7550506591797,141.275985717773,44.5818099975586,565.005,2352,1264,"Pictures_Onset",1248,"07","Healthy",7,0,10,2,"no","down","Right",0,"FS","FL",12,"down",584,1,"Guest07"
49,0.428711116313934,0.522844433784485,-35.4931144714355,133.203765869141,41.644889831543,232.998,1419.994,398.004,"Pictures_Onset",315.994,"07","Sugary",7,0,10,1,"no","up","Left",1,"FS","FL",13,"up",546,1,"Guest07"
49,0.56303346157074,0.539966642856598,28.4428310394287,128.868179321289,40.0664939880371,315.994,1720,698.01,"Pictures_Onset",616,"07","Healthy",7,0,10,1,"no","up","Left",1,"FS","FL",13,"up",546,1,"Guest07"
50,0.398166656494141,0.512633323669434,-50.0723342895508,135.781341552734,42.5833358764648,151.002,2123.008,1032,"Pictures_Onset",1019.008,"07","Healthy",7,0,10,2,"no","up","Left",0,"FL","FS",13,"up",531,1,"Guest07"
50,0.369384616613388,0.527410209178925,-63.8776893615723,132.0458984375,41.2248725891113,200,2323.008,1232,"Pictures_Onset",1219.008,"07","Healthy",7,0,10,2,"no","up","Left",0,"FL","FS",13,"up",531,1,"Guest07"
50,0.369212120771408,0.527484893798828,-63.9078750610352,132.03303527832,41.2184829711914,166.004,2556.006,1464.998,"Pictures_Onset",1452.006,"07","Healthy",7,0,10,2,"no","up","Left",0,"FL","FS",13,"up",531,1,"Guest07"
50,0.588966608047485,0.494199991226196,40.8199996948242,140.399673461914,44.2649993896484,150.003,2789.005,1697.997,"Pictures_Onset",1685.005,"07","Sugary",7,0,10,2,"no","up","Left",0,"FL","FS",13,"up",531,1,"Guest07"
51,0.41972553730011,0.519901931285858,-39.8786239624023,133.924499511719,41.9080390930176,265.996,1271.002,249.997,"Pictures_Onset",167.002,"07","Sugary",7,0,10,3,"no","down","Right",0,"FS","FL",13,"down",472,1,"Guest07"
51,0.575103759765625,0.504414796829224,34.2602195739746,137.822891235352,43.3261489868164,730.996,1604.006,583.001,"Pictures_Onset",500.006,"07","Healthy",7,0,10,3,"no","down","Right",0,"FS","FL",13,"down",472,1,"Guest07"
51,0.581119000911713,0.512357175350189,37.0732192993164,135.830703735352,42.6013107299805,448.999,2368.998,1347.993,"Pictures_Onset",1264.998,"07","Healthy",7,0,10,3,"no","down","Right",0,"FS","FL",13,"down",472,1,"Guest07"
53,0.617399990558624,0.491644382476807,54.374885559082,141.06689453125,44.5077743530273,232.998,1315.008,283.008,"Pictures_Onset",211.008,"07","Healthy",7,0,10,2,"no","up","Left",1,"FS","FL",14,"up",472,1,"Guest07"
53,0.383142799139023,0.478904753923416,-57.2495231628418,144.250946044922,45.6664237976074,216,1648,616,"Pictures_Onset",544,"07","Sugary",7,0,10,2,"no","up","Left",1,"FS","FL",14,"up",472,1,"Guest07"
53,0.36259999871254,0.502433359622955,-67.1003341674805,138.3193359375,43.5086631774902,149.005,1897.997,865.997,"Pictures_Onset",793.997,"07","Sugary",7,0,10,2,"no","up","Left",1,"FS","FL",14,"up",472,1,"Guest07"
53,0.573595225811005,0.520690500736237,33.4816665649414,133.718795776367,41.8319053649902,216,2408.998,1376.998,"Pictures_Onset",1304.998,"07","Healthy",7,0,10,2,"no","up","Left",1,"FS","FL",14,"up",472,1,"Guest07"
57,0.392116695642471,0.502716660499573,-52.9575004577637,138.252838134766,43.4833297729492,315.993,1249.997,200,"Pictures_Onset",145.997,"07","Sugary",7,0,10,3,"no","up","Left",1,"FS","FL",15,"up",543,1,"Guest07"
57,0.628507912158966,0.485650688409805,59.7053985595703,142.542083740234,45.0434913635254,332.992,1632,582.003,"Pictures_Onset",528,"07","Healthy",7,0,10,3,"no","up","Left",1,"FS","FL",15,"up",543,1,"Guest07"
57,0.58688884973526,0.491722196340561,39.8122253417969,141.023895263672,44.4916687011719,183.002,2364.992,1314.995,"Pictures_Onset",1260.992,"07","Healthy",7,0,10,3,"no","up","Left",1,"FS","FL",15,"up",543,1,"Guest07"
60,0.567102551460266,0.517102539539337,30.4017944335938,134.623336791992,42.1610298156738,200,1391.002,348.007,"Pictures_Onset",287.002,"07","Sugary",7,0,10,2,"no","down","Right",1,"FL","FS",15,"down",473,1,"Guest07"
62,0.621649980545044,0.523061096668243,56.4321136474609,133.122711181641,41.6151123046875,752.998,1373.005,349.005,"Pictures_Onset",269.005,"07","Sugary",7,0,10,1,"no","down","Left",0,"FL","FS",16,"down",424,1,"Guest07"
62,0.625898122787476,0.506083309650421,58.4521331787109,137.398132324219,43.1712951660156,583.001,2159.002,1135.002,"Pictures_Onset",1055.002,"07","Sugary",7,0,10,1,"no","down","Left",0,"FL","FS",16,"down",424,1,"Guest07"
62,0.57345449924469,0.510969698429108,33.4881820678711,136.179092407227,42.7281837463379,166.989,2808.013,1784.013,"Pictures_Onset",1704.013,"07","Sugary",7,0,10,1,"no","down","Left",0,"FL","FS",16,"down",424,1,"Guest07"
63,0.375638961791992,0.50516676902771,-60.8713836669922,137.655258178711,43.2663917541504,582.004,1240.998,49.9960000000001,"Pictures_Onset",136.998,"07","Sugary",7,0,10,2,"no","up","Right",0,"FS","FL",16,"up",619,1,"Guest07"
63,0.627145826816559,0.485562562942505,59.055004119873,142.551452636719,45.0483322143555,249.997,1907.008,716.006,"Pictures_Onset",803.008,"07","Healthy",7,0,10,2,"no","up","Right",0,"FS","FL",16,"up",619,1,"Guest07"
63,0.600458323955536,0.478749990463257,46.3379173278809,144.252502441406,45.6666717529297,117.005,2189.005,998.003,"Pictures_Onset",1085.005,"07","Healthy",7,0,10,2,"no","up","Right",0,"FS","FL",16,"up",619,1,"Guest07"
63,0.363849490880966,0.491483926773071,-66.4523620605469,141.098373413086,44.5190238952637,498.995,2389.005,1198.003,"Pictures_Onset",1285.005,"07","Sugary",7,0,10,2,"no","up","Right",0,"FS","FL",16,"up",619,1,"Guest07"
65,0.38376185297966,0.498412668704987,-56.9411087036133,139.345077514648,43.8809509277344,333.991,1934.003,882.009,"Pictures_Onset",830.003,"07","Sugary",7,0,10,1,"no","down","Left",1,"FS","FL",17,"down",437,1,"Guest07"
65,0.574375033378601,0.507875025272369,33.8045845031738,136.953323364258,43.0087509155273,115.994,2518.003,1466.009,"Pictures_Onset",1414.003,"07","Healthy",7,0,10,1,"no","down","Left",1,"FS","FL",17,"down",437,1,"Guest07"
66,0.634881019592285,0.487571448087692,62.7797584533691,142.055236816406,44.8671455383301,216,1379.994,349.991,"Pictures_Onset",275.994,"07","Sugary",7,0,10,2,"no","down","Left",0,"FL","FS",17,"down",429,1,"Guest07"
66,0.377095222473145,0.477428644895554,-60.166072845459,144.612152099609,45.7976150512695,448.998,1679.002,648.999,"Pictures_Onset",575.002,"07","Healthy",7,0,10,2,"no","down","Left",0,"FL","FS",17,"down",429,1,"Guest07"
66,0.377333343029022,0.488458335399628,-60.0562477111816,141.812911987305,44.7783355712891,116.006,2161.997,1131.994,"Pictures_Onset",1057.997,"07","Healthy",7,0,10,2,"no","down","Left",0,"FL","FS",17,"down",429,1,"Guest07"
66,0.369580209255219,0.513888895511627,-63.6977806091309,135.432586669922,42.456298828125,432,2312,1281.997,"Pictures_Onset",1208,"07","Healthy",7,0,10,2,"no","down","Left",0,"FL","FS",17,"down",429,1,"Guest07"
66,0.398666650056839,0.494916677474976,-49.8533325195312,140.182495117188,44.1836090087891,183.001,2793.997,1763.994,"Pictures_Onset",1689.997,"07","Healthy",7,0,10,2,"no","down","Left",0,"FL","FS",17,"down",429,1,"Guest07"
69,0.379964917898178,0.494543820619583,-58.8208770751953,140.32421875,44.237548828125,300.007,1270.003,248.998,"Pictures_Onset",166.003,"07","Sugary",7,0,10,2,"no","down","Left",1,"FS","FL",18,"down",425,1,"Guest07"
69,0.615952372550964,0.487749963998795,53.7551231384277,142.018112182617,44.8529739379883,448.998,1653.005,632,"Pictures_Onset",549.005,"07","Healthy",7,0,10,2,"no","down","Left",1,"FS","FL",18,"down",425,1,"Guest07"
69,0.384374976158142,0.481708347797394,-56.6731224060059,143.548126220703,45.4087524414062,249.011,2185.997,1164.992,"Pictures_Onset",1081.997,"07","Sugary",7,0,10,2,"no","down","Left",1,"FS","FL",18,"down",425,1,"Guest07"
69,0.386481493711472,0.487740725278854,-55.6551818847656,142.059631347656,44.868522644043,132.992,2469.005,1448,"Pictures_Onset",1365.005,"07","Sugary",7,0,10,2,"no","down","Left",1,"FS","FL",18,"down",425,1,"Guest07"
73,0.575388789176941,0.51452773809433,34.4208374023438,135.254455566406,42.3911094665527,183.002,2216,1182.003,"Pictures_Onset",1112,"07","Healthy",7,0,10,3,"no","down","Left",1,"FS","FL",19,"down",465,1,"Guest07"
73,0.577284336090088,0.521303832530975,35.2588195800781,133.568435668945,41.7773513793945,549.005,2432,1398.003,"Pictures_Onset",1328,"07","Healthy",7,0,10,3,"no","down","Left",1,"FS","FL",19,"down",465,1,"Guest07"
74,0.413755595684052,0.527444422245026,-42.6711082458496,132.03955078125,41.222225189209,232.998,1388.992,132.992,"Pictures_Onset",284.992,"07","Healthy",7,0,10,4,"no","down","Left",0,"FL","FS",19,"down",534,1,"Guest07"
74,0.3923000395298,0.504299998283386,-52.9459953308105,137.816680908203,43.324333190918,148.992,2471.002,1215.002,"Pictures_Onset",1367.002,"07","Healthy",7,0,10,4,"no","down","Left",0,"FL","FS",19,"down",534,1,"Guest07"
74,0.595122873783112,0.470614075660706,43.7859649658203,146.316131591797,46.4177169799805,298.995,2687.002,1431.002,"Pictures_Onset",1583.002,"07","Sugary",7,0,10,4,"no","down","Left",0,"FL","FS",19,"down",534,1,"Guest07"
76,0.623062491416931,0.488395810127258,57.1089515686035,141.837707519531,44.7866668701172,248.999,1478.003,448.998,"Pictures_Onset",374.003,"07","Sugary",7,0,10,2,"no","up","Right",1,"FL","FS",19,"up",424,1,"Guest07"
76,0.404789537191391,0.534982442855835,-46.9763145446777,130.113662719727,40.5205268859863,299.994,1811.008,782.003,"Pictures_Onset",707.008,"07","Healthy",7,0,10,2,"no","up","Right",1,"FL","FS",19,"up",424,1,"Guest07"
76,0.607192933559418,0.515561461448669,49.5554351806641,135.010864257812,42.3022766113281,298.995,2194.01,1165.005,"Pictures_Onset",1090.01,"07","Sugary",7,0,10,2,"no","up","Right",1,"FL","FS",19,"up",424,1,"Guest07"
79,0.628857135772705,0.491952329874039,59.8742866516113,140.97297668457,44.472972869873,448.999,1326.003,232.998,"Pictures_Onset",222.003,"07","Healthy",7,0,10,2,"no","up","Right",0,"FS","FL",20,"up",426,1,"Guest07"
79,0.377101629972458,0.508906602859497,-60.1195106506348,136.70426940918,42.9191818237305,664.998,1859.008,766.003,"Pictures_Onset",755.008,"07","Sugary",7,0,10,2,"no","up","Right",0,"FS","FL",20,"up",426,1,"Guest07"
79,0.595984876155853,0.480393975973129,44.1983375549316,143.862869262695,45.5243988037109,349.005,2624,1530.995,"Pictures_Onset",1520,"07","Healthy",7,0,10,2,"no","up","Right",0,"FS","FL",20,"up",426,1,"Guest07"
80,0.577072024345398,0.507864832878113,35.1796340942383,136.957366943359,43.0121688842773,600,1628.006,599.001,"Pictures_Onset",524.006,"07","Sugary",7,0,10,3,"no","up","Right",1,"FL","FS",20,"up",378,1,"Guest07"
80,0.597740709781647,0.499148160219193,45.1374092102051,139.136657714844,43.804443359375,131.993,2495.002,1465.997,"Pictures_Onset",1391.002,"07","Sugary",7,0,10,3,"no","up","Right",1,"FL","FS",20,"up",378,1,"Guest07"
80,0.594799995422363,0.494444459676743,43.6115570068359,140.358215332031,44.2484474182129,233.997,2660.006,1631.001,"Pictures_Onset",1556.006,"07","Sugary",7,0,10,3,"no","up","Right",1,"FL","FS",20,"up",378,1,"Guest07"
