"trial_id","sx","sy","px","py","pz","duration","timestamp","trial_onset","label","label_onset","subject_nr.x","AOI_visited","subject_nr.y","fat_craving","sugar_craving","Block","practice","Arrow_Direction","Arrow_Position","Congruence","Left_Picture","Right_Picture","Pair_Number","response","response_time","accuracy","part_ID"
1,0.412777781486511,0.495355546474457,-41.9004440307617,139.311325073242,43.8664474487305,233.997,1312.998,282.009,"Pictures_Onset",232.998,"13","Salty",13,15,5,1,"no","up","Left",1,"FF","FL",1,"up",556,1,"Guest13"
1,0.566547572612762,0.52016669511795,30.8290500640869,133.063812255859,41.5926208496094,216.998,1612.992,582.003,"Pictures_Onset",532.992,"13","Healthy",13,15,5,1,"no","up","Left",1,"FF","FL",1,"up",556,1,"Guest13"
1,0.603566646575928,0.520066618919373,48.3924980163574,133.112503051758,41.6120071411133,317.005,1878.989,848,"Pictures_Onset",798.989,"13","Healthy",13,15,5,1,"no","up","Left",1,"FF","FL",1,"up",556,1,"Guest13"
1,0.587950050830841,0.495816618204117,40.9978332519531,139.195648193359,43.8258361816406,315.008,2228.992,1198.003,"Pictures_Onset",1148.992,"13","Healthy",13,15,5,1,"no","up","Left",1,"FF","FL",1,"up",556,1,"Guest13"
1,0.555880069732666,0.50762665271759,25.8521366119385,136.242553710938,42.7509269714355,399.001,2577.997,1547.008,"Pictures_Onset",1497.997,"13","Healthy",13,15,5,1,"no","up","Left",1,"FF","FL",1,"up",556,1,"Guest13"
2,0.614637613296509,0.507637619972229,53.6278305053711,136.239868164062,42.7507209777832,366.003,1219.994,182.004,"Pictures_Onset",139.994,"13","Salty",13,15,5,2,"no","up","Left",0,"FL","FF",1,"down",422,0,"Guest13"
2,0.622684180736542,0.497228056192398,57.3929748535156,138.822296142578,43.6906967163086,299.008,1669.99,632,"Pictures_Onset",589.99,"13","Salty",13,15,5,2,"no","up","Left",0,"FL","FF",1,"down",422,0,"Guest13"
2,0.621179521083832,0.495846122503281,56.7015380859375,139.217178344727,43.8351249694824,200,2001.997,964.007,"Pictures_Onset",921.997,"13","Salty",13,15,5,2,"no","up","Left",0,"FL","FF",1,"down",422,0,"Guest13"
2,0.631596505641937,0.520596504211426,61.6675453186035,132.978942871094,41.5638618469238,298.995,2235.994,1198.004,"Pictures_Onset",1155.994,"13","Salty",13,15,5,2,"no","up","Left",0,"FL","FF",1,"down",422,0,"Guest13"
2,0.602999925613403,0.492515176534653,48.1693878173828,140.036361694336,44.1324234008789,165.991,2584.998,1547.008,"Pictures_Onset",1504.998,"13","Salty",13,15,5,2,"no","up","Left",0,"FL","FF",1,"down",422,0,"Guest13"
2,0.601256430149078,0.496974408626556,47.279483795166,138.938980102539,43.7338485717773,200,2784.998,1747.008,"Pictures_Onset",1704.998,"13","Salty",13,15,5,2,"no","up","Left",0,"FL","FF",1,"down",422,0,"Guest13"
3,0.42512121796608,0.48893940448761,-36.1042442321777,140.921508789062,44.4536399841309,167.001,1225.997,199.002,"Pictures_Onset",145.997,"13","Salty",13,15,5,3,"no","down","Right",0,"FF","FL",1,"down",658,1,"Guest13"
3,0.595053315162659,0.49330660700798,44.3669319152832,139.810943603516,44.0493316650391,399.001,2241.997,1215.002,"Pictures_Onset",1161.997,"13","Healthy",13,15,5,3,"no","down","Right",0,"FF","FL",1,"down",658,1,"Guest13"
3,0.440333366394043,0.505733370780945,-28.873779296875,136.695556640625,42.9153366088867,232.998,2741.005,1714.01,"Pictures_Onset",1661.005,"13","Salty",13,15,5,3,"no","down","Right",0,"FF","FL",1,"down",658,1,"Guest13"
4,0.616215705871582,0.509764730930328,54.3745079040527,135.688842773438,42.5503845214844,265.997,1256,232.998,"Pictures_Onset",176,"13","Salty",13,15,5,4,"no","down","Right",1,"FL","FF",1,"down",548,1,"Guest13"
4,0.613966643810272,0.513658344745636,53.2770805358887,134.749069213867,42.2074203491211,648.999,1554.995,531.993,"Pictures_Onset",474.995,"13","Salty",13,15,5,4,"no","down","Right",1,"FL","FF",1,"down",548,1,"Guest13"
4,0.609288275241852,0.518621563911438,51.0981979370117,133.485595703125,41.7480125427246,599.002,2238.003,1215.001,"Pictures_Onset",1158.003,"13","Salty",13,15,5,4,"no","down","Right",1,"FL","FF",1,"down",548,1,"Guest13"
6,0.630647003650665,0.494382351636887,61.2003898620605,139.565689086914,43.9600982666016,549.005,1453.99,432.998,"Pictures_Onset",373.99,"13","Salty",13,15,5,3,"no","up","Left",0,"FL","FF",2,"up",652,1,"Guest13"
6,0.630000054836273,0.499153792858124,60.8797454833984,138.348968505859,43.517692565918,200,2035.994,1015.002,"Pictures_Onset",955.994,"13","Salty",13,15,5,3,"no","up","Left",0,"FL","FF",2,"up",652,1,"Guest13"
6,0.409564048051834,0.482641011476517,-43.3666648864746,142.503082275391,45.0287208557129,198.989,2486.003,1465.011,"Pictures_Onset",1406.003,"13","Healthy",13,15,5,3,"no","up","Left",0,"FL","FF",2,"up",652,1,"Guest13"
6,0.642488896846771,0.484244406223297,66.8320007324219,142.083557128906,44.876220703125,232,2752,1731.008,"Pictures_Onset",1672,"13","Salty",13,15,5,3,"no","up","Left",0,"FL","FF",2,"up",652,1,"Guest13"
7,0.615538537502289,0.512897431850433,54.0046157836914,134.932830810547,42.2738456726074,200,1227.008,199.002,"Pictures_Onset",147.008,"13","Healthy",13,15,5,4,"no","down","Right",0,"FF","FL",2,"down",437,1,"Guest13"
7,0.629733324050903,0.477866649627686,60.7633285522461,143.705337524414,45.4673347473145,149.005,1948.006,920,"Pictures_Onset",868.006,"13","Healthy",13,15,5,4,"no","down","Right",0,"FF","FL",2,"down",437,1,"Guest13"
7,0.630666613578796,0.48809090256691,61.1906089782715,141.130920410156,44.5299987792969,167.001,2130.01,1102.004,"Pictures_Onset",1050.01,"13","Healthy",13,15,5,4,"no","down","Right",0,"FF","FL",2,"down",437,1,"Guest13"
7,0.643074095249176,0.51885187625885,67.1311111450195,133.408905029297,41.7200012207031,133.991,2513.011,1485.005,"Pictures_Onset",1433.011,"13","Healthy",13,15,5,4,"no","down","Right",0,"FF","FL",2,"down",437,1,"Guest13"
7,0.616916596889496,0.505145847797394,54.6577110290527,136.860824584961,42.9758338928223,249.997,2729.011,1701.005,"Pictures_Onset",1649.011,"13","Healthy",13,15,5,4,"no","down","Right",0,"FF","FL",2,"down",437,1,"Guest13"
8,0.620784282684326,0.511529445648193,56.4935302734375,135.256286621094,42.3927459716797,264.999,1444.006,416,"Pictures_Onset",364.006,"13","Salty",13,15,5,1,"no","down","Right",1,"FL","FF",2,"down",415,1,"Guest13"
8,0.624678909778595,0.516999959945679,58.3927154541016,133.855316162109,41.8823471069336,432,1743.002,714.996,"Pictures_Onset",663.002,"13","Salty",13,15,5,1,"no","down","Right",1,"FL","FF",2,"down",415,1,"Guest13"
8,0.625416696071625,0.521555542945862,58.7383308410645,132.740844726562,41.4766654968262,383.002,2208,1179.994,"Pictures_Onset",1128,"13","Salty",13,15,5,1,"no","down","Right",1,"FL","FF",2,"down",415,1,"Guest13"
8,0.615651488304138,0.501893997192383,54.1160621643066,137.661224365234,43.2671241760254,348.992,2625.011,1597.005,"Pictures_Onset",1545.011,"13","Salty",13,15,5,1,"no","down","Right",1,"FL","FF",2,"down",415,1,"Guest13"
9,0.626111149787903,0.490185141563416,59.0470390319824,140.571105957031,44.3266677856445,132.992,1256,166.003,"Pictures_Onset",176,"13","Healthy",13,15,5,3,"no","up","Left",1,"FF","FL",3,"up",580,1,"Guest13"
9,0.626871764659882,0.50269228219986,59.4192314147949,137.451126098633,43.190860748291,631.987,1422.003,332.006,"Pictures_Onset",342.003,"13","Healthy",13,15,5,3,"no","up","Left",1,"FF","FL",3,"up",580,1,"Guest13"
9,0.605351865291595,0.485759258270264,49.2161102294922,141.702972412109,44.7392578125,283.994,2104,1014.003,"Pictures_Onset",1024,"13","Healthy",13,15,5,3,"no","up","Left",1,"FF","FL",3,"up",580,1,"Guest13"
9,0.607171356678009,0.496095269918442,50.1021842956543,139.142196655273,43.8066673278809,567.001,2419.994,1329.997,"Pictures_Onset",1339.994,"13","Healthy",13,15,5,3,"no","up","Left",1,"FF","FL",3,"up",580,1,"Guest13"
11,0.400155574083328,0.492155581712723,-47.8126678466797,140.116668701172,44.1613349914551,232.998,1239.002,216,"Pictures_Onset",159.002,"13","Salty",13,15,5,1,"no","down","Right",0,"FF","FL",3,"down",427,1,"Guest13"
11,0.597895860671997,0.50697922706604,45.6722946166992,136.376663208008,42.8010406494141,248.999,1538.995,515.993,"Pictures_Onset",458.995,"13","Healthy",13,15,5,1,"no","down","Right",0,"FF","FL",3,"down",427,1,"Guest13"
11,0.634215772151947,0.507392168045044,62.8547019958496,136.303924560547,42.7737197875977,266.995,1838.003,815.001,"Pictures_Onset",758.003,"13","Healthy",13,15,5,1,"no","down","Right",0,"FF","FL",3,"down",427,1,"Guest13"
11,0.621701717376709,0.546263217926025,57.0003471374512,126.552635192871,39.2249183654785,301.005,2136.998,1113.996,"Pictures_Onset",1056.998,"13","Healthy",13,15,5,1,"no","down","Right",0,"FF","FL",3,"down",427,1,"Guest13"
11,0.605499982833862,0.505933344364166,49.223331451416,136.637664794922,42.8943328857422,150.003,2487.002,1464,"Pictures_Onset",1407.002,"13","Healthy",13,15,5,1,"no","down","Right",0,"FF","FL",3,"down",427,1,"Guest13"
12,0.633924245834351,0.475484848022461,62.7171173095703,144.330459594727,45.6948471069336,348.007,1458.995,365.99,"Pictures_Onset",378.995,"13","Salty",13,15,5,2,"no","down","Right",1,"FL","FF",3,"down",451,1,"Guest13"
12,0.630222260951996,0.487972229719162,60.9888877868652,141.153045654297,44.538890838623,183.002,1840.998,747.993,"Pictures_Onset",760.998,"13","Salty",13,15,5,2,"no","down","Right",1,"FL","FF",3,"down",451,1,"Guest13"
12,0.599016606807709,0.489216715097427,46.2495002746582,140.825836181641,44.4200019836426,315.994,2324.006,1231.001,"Pictures_Onset",1244.006,"13","Salty",13,15,5,2,"no","down","Right",1,"FL","FF",3,"down",451,1,"Guest13"
12,0.626117706298828,0.473117649555206,59.0717620849609,144.877838134766,45.8931312561035,267.008,2705.997,1612.992,"Pictures_Onset",1625.997,"13","Salty",13,15,5,2,"no","down","Right",1,"FL","FF",3,"down",451,1,"Guest13"
13,0.618280708789825,0.509245693683624,55.3943824768066,135.79508972168,42.5880699157715,299.994,1272.998,249.996,"Pictures_Onset",192.998,"13","Healthy",13,15,5,4,"no","up","Left",1,"FF","FL",4,"up",493,1,"Guest13"
13,0.640129566192627,0.523759126663208,65.7462997436523,132.184448242188,41.2748107910156,284.006,1604.992,581.99,"Pictures_Onset",524.992,"13","Healthy",13,15,5,4,"no","up","Left",1,"FF","FL",4,"up",493,1,"Guest13"
13,0.665193021297455,0.51121062040329,77.5699920654297,135.348419189453,42.4268455505371,298.995,2039.002,1016,"Pictures_Onset",959.002,"13","Healthy",13,15,5,4,"no","up","Left",1,"FF","FL",4,"up",493,1,"Guest13"
13,0.621962904930115,0.515259265899658,57.0555572509766,134.339630126953,42.0596313476562,134.003,2387.994,1364.992,"Pictures_Onset",1307.994,"13","Healthy",13,15,5,4,"no","up","Left",1,"FF","FL",4,"up",493,1,"Guest13"
13,0.602973341941833,0.495693355798721,48.0870704650879,139.226135253906,43.837459564209,399.001,2587.994,1564.992,"Pictures_Onset",1507.994,"13","Healthy",13,15,5,4,"no","up","Left",1,"FF","FL",4,"up",493,1,"Guest13"
14,0.615240037441254,0.523306667804718,53.9640045166016,132.293334960938,41.3121376037598,399.002,1368,332.992,"Pictures_Onset",288,"13","Salty",13,15,5,1,"no","up","Left",0,"FL","FF",4,"up",557,1,"Guest13"
14,0.592299938201904,0.513141632080078,43.0657424926758,134.856338500977,42.2467460632324,648.998,1800,764.992,"Pictures_Onset",720,"13","Salty",13,15,5,1,"no","up","Left",0,"FL","FF",4,"up",557,1,"Guest13"
14,0.559694409370422,0.50558340549469,27.5702743530273,136.72917175293,42.9269409179688,183.001,2482.01,1447.002,"Pictures_Onset",1402.01,"13","Salty",13,15,5,1,"no","up","Left",0,"FL","FF",4,"up",557,1,"Guest13"
14,0.55820369720459,0.513481438159943,26.9275894165039,134.795562744141,42.2242584228516,282.995,2699.008,1664,"Pictures_Onset",1619.008,"13","Salty",13,15,5,1,"no","up","Left",0,"FL","FF",4,"up",557,1,"Guest13"
15,0.644180536270142,0.48527780175209,67.6062622070312,141.828750610352,44.7844505310059,383.001,1657.997,632,"Pictures_Onset",577.997,"13","Healthy",13,15,5,2,"no","down","Right",0,"FF","FL",4,"down",514,1,"Guest13"
15,0.607229173183441,0.487645834684372,50.1095809936523,141.222076416016,44.5641670227051,249.997,2125.005,1099.008,"Pictures_Onset",1045.005,"13","Healthy",13,15,5,2,"no","down","Right",0,"FF","FL",4,"down",514,1,"Guest13"
15,0.596916615962982,0.496625065803528,45.2099952697754,138.973037719727,43.745418548584,382.003,2408,1382.003,"Pictures_Onset",1328,"13","Healthy",13,15,5,2,"no","down","Right",0,"FF","FL",4,"down",514,1,"Guest13"
16,0.413256376981735,0.494461536407471,-41.619743347168,139.579238891602,43.9656410217285,199.002,1340.992,316.992,"Pictures_Onset",260.992,"13","Healthy",13,15,5,3,"no","down","Right",1,"FL","FF",4,"down",499,1,"Guest13"
16,0.554833352565765,0.520208299160004,25.3954181671143,133.056243896484,41.5933303833008,117.005,1954.995,930.995,"Pictures_Onset",874.995,"13","Salty",13,15,5,3,"no","down","Right",1,"FL","FF",4,"down",499,1,"Guest13"
16,0.605481505393982,0.496481537818909,49.2692604064941,139.026290893555,43.765926361084,133.005,2138.995,1114.995,"Pictures_Onset",1058.995,"13","Salty",13,15,5,3,"no","down","Right",1,"FL","FF",4,"down",499,1,"Guest13"
16,0.602777719497681,0.508222222328186,48.0291137695312,136.101989746094,42.7002220153809,233.997,2304.998,1280.998,"Pictures_Onset",1224.998,"13","Salty",13,15,5,3,"no","down","Right",1,"FL","FF",4,"down",499,1,"Guest13"
17,0.610399961471558,0.51745331287384,51.5929336547852,133.758117675781,41.8476028442383,398.989,1254.003,232.998,"Pictures_Onset",174.003,"13","Healthy",13,15,5,1,"no","up","Left",1,"FF","FL",5,"up",467,1,"Guest13"
17,0.61858332157135,0.471208333969116,55.4516677856445,145.322082519531,46.0549964904785,115.993,1687.002,665.997,"Pictures_Onset",607.002,"13","Healthy",13,15,5,1,"no","up","Left",1,"FF","FL",5,"up",467,1,"Guest13"
17,0.620616793632507,0.473633348941803,56.4476623535156,144.756011962891,45.8506660461426,314.995,1837.005,816,"Pictures_Onset",757.005,"13","Healthy",13,15,5,1,"no","up","Left",1,"FF","FL",5,"up",467,1,"Guest13"
17,0.623544216156006,0.482469350099564,57.8516960144043,142.522033691406,45.0369453430176,799.001,2185.997,1164.992,"Pictures_Onset",1105.997,"13","Healthy",13,15,5,1,"no","up","Left",1,"FF","FL",5,"up",467,1,"Guest13"
18,0.605333268642426,0.51068115234375,49.2073974609375,135.488265991211,42.4760856628418,367.002,1252.992,164.992,"Pictures_Onset",172.992,"13","Salty",13,15,5,2,"no","up","Left",0,"FL","FF",5,"up",484,1,"Guest13"
18,0.611754357814789,0.468596518039703,52.2684211730957,146.038238525391,46.3168449401855,301.004,1651.994,563.994,"Pictures_Onset",571.994,"13","Salty",13,15,5,2,"no","up","Left",0,"FL","FF",5,"up",484,1,"Guest13"
18,0.394095242023468,0.485714226961136,-50.7709541320801,141.755950927734,44.7564353942871,216,2035.994,947.994,"Pictures_Onset",955.994,"13","Healthy",13,15,5,2,"no","up","Left",0,"FL","FF",5,"up",484,1,"Guest13"
18,0.551466703414917,0.51308000087738,23.7462673187256,134.859329223633,42.2481346130371,399.001,2550.989,1462.989,"Pictures_Onset",1470.989,"13","Salty",13,15,5,2,"no","up","Left",0,"FL","FF",5,"up",484,1,"Guest13"
19,0.389681160449982,0.497028976678848,-52.8520202636719,138.891754150391,43.7146377563477,367.001,1431.002,400,"Pictures_Onset",351.002,"13","Salty",13,15,5,3,"no","down","Right",0,"FF","FL",5,"up",428,0,"Guest13"
19,0.572577774524689,0.492844492197037,33.7657737731934,139.910217285156,44.0868911743164,232.013,1996.992,965.99,"Pictures_Onset",916.992,"13","Healthy",13,15,5,3,"no","down","Right",0,"FF","FL",5,"up",428,0,"Guest13"
19,0.57277774810791,0.502250015735626,33.7508354187012,137.603881835938,43.2461128234863,184,2262.003,1231.001,"Pictures_Onset",1182.003,"13","Healthy",13,15,5,3,"no","down","Right",0,"FF","FL",5,"up",428,0,"Guest13"
19,0.601933300495148,0.498933374881744,47.6213340759277,138.371994018555,43.5249977111816,150.003,2479.002,1448,"Pictures_Onset",1399.002,"13","Healthy",13,15,5,3,"no","down","Right",0,"FF","FL",5,"up",428,0,"Guest13"
19,0.550806999206543,0.510315835475922,23.438419342041,135.579803466797,42.5094757080078,298.995,2679.002,1648,"Pictures_Onset",1599.002,"13","Healthy",13,15,5,3,"no","down","Right",0,"FF","FL",5,"up",428,0,"Guest13"
21,0.615999937057495,0.460858941078186,54.2882041931152,147.963348388672,47.016414642334,414.989,1496.013,465.011,"Pictures_Onset",416.013,"13","Healthy",13,15,5,2,"no","down","Left",1,"FF","FL",6,"down",463,1,"Guest13"
21,0.616636335849762,0.468454539775848,54.5900001525879,146.048477172852,46.3200035095215,166.989,1945.011,914.009,"Pictures_Onset",865.011,"13","Healthy",13,15,5,2,"no","down","Left",1,"FF","FL",6,"down",463,1,"Guest13"
21,0.618271887302399,0.474315792322159,55.3738555908203,144.568176269531,45.7810554504395,615.001,2146.01,1115.008,"Pictures_Onset",1066.01,"13","Healthy",13,15,5,2,"no","down","Left",1,"FF","FL",6,"down",463,1,"Guest13"
21,0.548966705799103,0.501933336257935,22.5643348693848,137.712677001953,43.286003112793,150.003,2827.008,1796.006,"Pictures_Onset",1747.008,"13","Healthy",13,15,5,2,"no","down","Left",1,"FF","FL",6,"down",463,1,"Guest13"
22,0.633718729019165,0.492874920368195,62.6230278015137,139.93083190918,44.0935440063477,516.007,1415.987,382.989,"Pictures_Onset",335.987,"13","Salty",13,15,5,3,"no","down","Left",0,"FL","FF",6,"down",534,1,"Guest13"
22,0.633666634559631,0.498378336429596,62.6440505981445,138.570755004883,43.5997314453125,599.002,1964.992,931.994,"Pictures_Onset",884.992,"13","Salty",13,15,5,3,"no","down","Left",0,"FL","FF",6,"down",534,1,"Guest13"
23,0.61163330078125,0.487033367156982,52.1536636352539,141.396331787109,44.6269989013672,150.003,1354.995,332.992,"Pictures_Onset",274.995,"13","Healthy",13,15,5,4,"no","up","Right",0,"FF","FL",6,"up",412,1,"Guest13"
23,0.387652188539505,0.485420316457748,-53.7913017272949,141.811431884766,44.7801475524902,367.002,1986.995,964.992,"Pictures_Onset",906.995,"13","Salty",13,15,5,4,"no","up","Right",0,"FF","FL",6,"up",412,1,"Guest13"
23,0.602700054645538,0.507966637611389,48.007999420166,136.139999389648,42.7159996032715,149.005,2420.992,1398.989,"Pictures_Onset",1340.992,"13","Healthy",13,15,5,4,"no","up","Right",0,"FF","FL",6,"up",412,1,"Guest13"
23,0.628895878791809,0.484291642904282,60.3618774414062,142.086456298828,44.8787460327148,249.996,2703.002,1680.999,"Pictures_Onset",1623.002,"13","Healthy",13,15,5,4,"no","up","Right",0,"FF","FL",6,"up",412,1,"Guest13"
24,0.613770127296448,0.520402312278748,53.2193145751953,133.041152954102,41.5860939025879,465.997,1552,515.008,"Pictures_Onset",472,"13","Salty",13,15,5,1,"no","up","Right",1,"FL","FF",6,"up",612,1,"Guest13"
25,0.400645792484283,0.490000009536743,-47.6047897338867,140.650405883789,44.3550033569336,249.997,1240.013,216.013,"Pictures_Onset",160.013,"13","Salty",13,15,5,3,"no","down","Left",1,"FF","FL",7,"down",495,1,"Guest13"
25,0.61481249332428,0.486583292484283,53.7237510681152,141.506866455078,44.6672897338867,248.998,1573.005,549.005,"Pictures_Onset",493.005,"13","Healthy",13,15,5,3,"no","down","Left",1,"FF","FL",7,"down",495,1,"Guest13"
25,0.613799929618835,0.496699959039688,53.2273330688477,138.975997924805,43.7453308105469,150.003,1855.002,831.002,"Pictures_Onset",775.002,"13","Healthy",13,15,5,3,"no","down","Left",1,"FF","FL",7,"down",495,1,"Guest13"
25,0.627876758575439,0.471188336610794,59.8487014770508,145.360687255859,46.0699195861816,748.006,2039.002,1015.002,"Pictures_Onset",959.002,"13","Healthy",13,15,5,3,"no","down","Left",1,"FF","FL",7,"down",495,1,"Guest13"
26,0.633564054965973,0.48933333158493,62.5902557373047,140.82307434082,44.417179107666,200.013,2109.99,1080.998,"Pictures_Onset",1029.99,"13","Salty",13,15,5,4,"no","down","Left",0,"FL","FF",7,"down",492,1,"Guest13"
26,0.441424250602722,0.516606092453003,-28.3478813171387,133.987884521484,41.9315147399902,167.002,2392.998,1364.006,"Pictures_Onset",1312.998,"13","Healthy",13,15,5,4,"no","down","Left",0,"FL","FF",7,"down",492,1,"Guest13"
26,0.561600029468536,0.500699996948242,28.542667388916,137.97932434082,43.3833312988281,151.001,2625.997,1597.005,"Pictures_Onset",1545.997,"13","Salty",13,15,5,4,"no","down","Left",0,"FL","FF",7,"down",492,1,"Guest13"
27,0.436435908079147,0.500025629997253,-30.7451286315918,138.11897277832,43.4338455200195,200,1424,399.002,"Pictures_Onset",344,"13","Salty",13,15,5,1,"no","up","Right",0,"FF","FL",7,"up",471,1,"Guest13"
27,0.626859366893768,0.509385228157043,59.4551811218262,135.801025390625,42.5902900695801,732.992,1690.01,665.012,"Pictures_Onset",610.01,"13","Healthy",13,15,5,1,"no","up","Right",0,"FF","FL",7,"up",471,1,"Guest13"
27,0.627947926521301,0.538354218006134,59.926456451416,128.514892578125,39.9391670227051,515.008,2456,1431.002,"Pictures_Onset",1376,"13","Healthy",13,15,5,1,"no","up","Right",0,"FF","FL",7,"up",471,1,"Guest13"
28,0.59931880235672,0.489565283060074,46.3408699035645,140.765335083008,44.3970985412598,367.001,1293.005,264.999,"Pictures_Onset",213.005,"13","Salty",13,15,5,2,"no","up","Right",1,"FL","FF",7,"up",474,1,"Guest13"
28,0.617817163467407,0.537838637828827,55.1582794189453,128.668914794922,39.9950485229492,500.007,1792.998,764.992,"Pictures_Onset",712.998,"13","Salty",13,15,5,2,"no","up","Right",1,"FL","FF",7,"up",474,1,"Guest13"
28,0.39638888835907,0.490722239017487,-49.6629638671875,140.448516845703,44.2811126708984,134.004,2640.998,1612.992,"Pictures_Onset",1560.998,"13","Healthy",13,15,5,2,"no","up","Right",1,"FL","FF",7,"up",474,1,"Guest13"
29,0.602787911891937,0.508712112903595,48.022876739502,135.950454711914,42.644847869873,348.992,1232,200,"Pictures_Onset",152,"13","Healthy",13,15,5,4,"no","down","Left",1,"FF","FL",8,"down",454,1,"Guest13"
29,0.627291679382324,0.467958301305771,59.5437469482422,146.187103271484,46.3695831298828,117.005,1613.99,581.99,"Pictures_Onset",533.99,"13","Healthy",13,15,5,4,"no","down","Left",1,"FF","FL",8,"down",454,1,"Guest13"
29,0.625333428382874,0.480711072683334,58.6553344726562,143.007781982422,45.2133293151855,232.998,1763.994,731.994,"Pictures_Onset",683.994,"13","Healthy",13,15,5,4,"no","down","Left",1,"FF","FL",8,"down",454,1,"Guest13"
29,0.647190511226654,0.489714294672012,69.0780868530273,140.728103637695,44.382381439209,100.007,2029.99,997.99,"Pictures_Onset",949.99,"13","Healthy",13,15,5,4,"no","down","Left",1,"FF","FL",8,"down",454,1,"Guest13"
29,0.651837408542633,0.499024420976639,71.2332305908203,138.389511108398,43.531867980957,665.997,2162.995,1130.995,"Pictures_Onset",1082.995,"13","Healthy",13,15,5,4,"no","down","Left",1,"FF","FL",8,"down",454,1,"Guest13"
29,0.652791678905487,0.507208287715912,71.6720809936523,136.313751220703,42.778751373291,117.005,2861.99,1829.99,"Pictures_Onset",1781.99,"13","Healthy",13,15,5,4,"no","down","Left",1,"FF","FL",8,"down",454,1,"Guest13"
30,0.595090866088867,0.521924197673798,44.3728790283203,132.625915527344,41.4359130859375,350.003,1223.002,199.002,"Pictures_Onset",143.002,"13","Salty",13,15,5,1,"no","down","Left",0,"FL","FF",8,"down",392,1,"Guest13"
30,0.597413301467896,0.527586698532104,45.4954643249512,131.228927612305,40.92626953125,399.002,1606.003,582.003,"Pictures_Onset",526.003,"13","Salty",13,15,5,1,"no","down","Left",0,"FL","FF",8,"down",392,1,"Guest13"
30,0.616000056266785,0.530076861381531,54.2700042724609,130.607711791992,40.7000045776367,416,2039.002,1015.002,"Pictures_Onset",959.002,"13","Salty",13,15,5,1,"no","down","Left",0,"FL","FF",8,"down",392,1,"Guest13"
30,0.593947291374207,0.511508762836456,43.8089485168457,135.2275390625,42.382453918457,299.008,2488,1464,"Pictures_Onset",1408,"13","Salty",13,15,5,1,"no","down","Left",0,"FL","FF",8,"down",392,1,"Guest13"
30,0.607333302497864,0.53393942117691,50.2451515197754,129.633926391602,40.3466644287109,166.003,2821.005,1797.005,"Pictures_Onset",1741.005,"13","Salty",13,15,5,1,"no","down","Left",0,"FL","FF",8,"down",392,1,"Guest13"
31,0.594469130039215,0.489419728517532,44.085807800293,140.794830322266,44.4075355529785,432,1254.003,234.009,"Pictures_Onset",174.003,"13","Healthy",13,15,5,2,"no","up","Right",0,"FF","FL",8,"up",428,1,"Guest13"
31,0.610260963439941,0.474275350570679,51.5434799194336,144.574066162109,45.7840576171875,366.003,1719.002,699.008,"Pictures_Onset",639.002,"13","Healthy",13,15,5,2,"no","up","Right",0,"FF","FL",8,"up",428,1,"Guest13"
31,0.598747134208679,0.490103453397751,46.0920677185059,140.601943969727,44.3371238708496,464.998,2119.002,1099.008,"Pictures_Onset",1039.002,"13","Healthy",13,15,5,2,"no","up","Right",0,"FF","FL",8,"up",428,1,"Guest13"
31,0.575266599655151,0.482177764177322,34.969108581543,142.573989868164,45.0548858642578,232.999,2616.998,1597.004,"Pictures_Onset",1536.998,"13","Healthy",13,15,5,2,"no","up","Right",0,"FF","FL",8,"up",428,1,"Guest13"
31,0.575380921363831,0.488904774188995,35.0666656494141,140.984283447266,44.4766654968262,100.006,2883.994,1864,"Pictures_Onset",1803.994,"13","Healthy",13,15,5,2,"no","up","Right",0,"FF","FL",8,"up",428,1,"Guest13"
32,0.618451654911041,0.48743012547493,55.4393501281738,141.275253295898,44.5833320617676,498.995,1464.013,432,"Pictures_Onset",384.013,"13","Salty",13,15,5,3,"no","up","Right",1,"FL","FF",8,"up",383,1,"Guest13"
33,0.611129641532898,0.510574162006378,51.9551887512207,135.477401733398,42.4729652404785,282.995,1330.995,299.993,"Pictures_Onset",250.995,"13","Healthy",13,15,5,1,"no","down","Left",1,"FF","FL",9,"down",366,1,"Guest13"
33,0.643206357955933,0.508222222328186,67.1454010009766,136.086822509766,42.6936492919922,332.992,1664,632.998,"Pictures_Onset",584,"13","Healthy",13,15,5,1,"no","down","Left",1,"FF","FL",9,"down",366,1,"Guest13"
33,0.641047596931458,0.511714279651642,66.1661911010742,135.215713500977,42.377140045166,100.006,2028.992,997.99,"Pictures_Onset",948.992,"13","Healthy",13,15,5,1,"no","down","Left",1,"FF","FL",9,"down",366,1,"Guest13"
33,0.613133311271667,0.520533382892609,52.9869995117188,133.020324707031,41.5783309936523,149.005,2762.995,1731.993,"Pictures_Onset",1682.995,"13","Healthy",13,15,5,1,"no","down","Left",1,"FF","FL",9,"down",366,1,"Guest13"
34,0.398977786302567,0.467866688966751,-48.4666633605957,146.192001342773,46.3713340759277,232,1250.995,216.998,"Pictures_Onset",170.995,"13","Healthy",13,15,5,2,"no","down","Left",0,"FL","FF",9,"down",477,1,"Guest13"
34,0.59235554933548,0.492755562067032,43.1717758178711,139.946670532227,44.0999984741211,233.012,1549.99,515.993,"Pictures_Onset",469.99,"13","Salty",13,15,5,2,"no","down","Left",0,"FL","FF",9,"down",477,1,"Guest13"
34,0.620234549045563,0.511382758617401,56.2596282958984,135.297409057617,42.4067916870117,432.998,1816,782.003,"Pictures_Onset",736,"13","Salty",13,15,5,2,"no","down","Left",0,"FL","FF",9,"down",477,1,"Guest13"
35,0.38481941819191,0.475069403648376,-55.1169471740723,144.38752746582,45.7165260314941,382.003,1292.992,267.994,"Pictures_Onset",212.992,"13","Salty",13,15,5,3,"no","up","Right",0,"FF","FL",9,"up",485,1,"Guest13"
35,0.385454535484314,0.486212134361267,-54.8369636535645,141.597885131836,44.698787689209,167.001,1723.994,698.996,"Pictures_Onset",643.994,"13","Salty",13,15,5,3,"no","up","Right",0,"FF","FL",9,"up",485,1,"Guest13"
35,0.619166731834412,0.483433336019516,55.8073348999023,142.317657470703,44.9616622924805,149.99,2208,1183.002,"Pictures_Onset",1128,"13","Healthy",13,15,5,3,"no","up","Right",0,"FF","FL",9,"up",485,1,"Guest13"
35,0.622333288192749,0.493982464075089,57.2817573547363,139.648422241211,43.9914054870605,300.007,2389.99,1364.992,"Pictures_Onset",1309.99,"13","Healthy",13,15,5,3,"no","up","Right",0,"FF","FL",9,"up",485,1,"Guest13"
35,0.569820463657379,0.495820552110672,32.4451293945312,139.180770874023,43.8210258483887,199.002,2772.992,1747.994,"Pictures_Onset",1692.992,"13","Healthy",13,15,5,3,"no","up","Right",0,"FF","FL",9,"up",485,1,"Guest13"
36,0.620213031768799,0.505777716636658,56.2782402038574,136.701843261719,42.9194488525391,583.002,1562.995,531.993,"Pictures_Onset",482.995,"13","Salty",13,15,5,4,"no","up","Right",1,"FL","FF",9,"up",378,1,"Guest13"
36,0.625333368778229,0.545047640800476,58.748405456543,126.872230529785,39.3396797180176,333.005,2194.995,1163.993,"Pictures_Onset",1114.995,"13","Salty",13,15,5,4,"no","up","Right",1,"FL","FF",9,"up",378,1,"Guest13"
36,0.571428596973419,0.511857151985168,33.1771430969238,135.194290161133,42.3699989318848,100.006,2561.997,1530.995,"Pictures_Onset",1481.997,"13","Salty",13,15,5,4,"no","up","Right",1,"FL","FF",9,"up",378,1,"Guest13"
36,0.56892591714859,0.517296314239502,32.0046310424805,133.799087524414,41.8609275817871,282.995,2695.002,1664,"Pictures_Onset",1615.002,"13","Salty",13,15,5,4,"no","up","Right",1,"FL","FF",9,"up",378,1,"Guest13"
37,0.621580183506012,0.478518515825272,56.8292655944824,143.544326782227,45.4100036621094,432.998,1455.002,366.004,"Pictures_Onset",375.002,"13","Healthy",13,15,5,2,"no","down","Left",1,"FF","FL",10,"down",433,1,"Guest13"
37,0.643466651439667,0.453977763652802,67.2411117553711,149.658889770508,47.6346664428711,233.997,1952.998,864,"Pictures_Onset",872.998,"13","Healthy",13,15,5,2,"no","down","Left",1,"FF","FL",10,"down",433,1,"Guest13"
37,0.638969659805298,0.463969707489014,65.1215133666992,147.185897827148,46.733943939209,349.004,2219.994,1130.996,"Pictures_Onset",1139.994,"13","Healthy",13,15,5,2,"no","down","Left",1,"FF","FL",10,"down",433,1,"Guest13"
37,0.449944496154785,0.512944459915161,-24.2977752685547,134.933044433594,42.2738914489746,182.989,2686.003,1597.005,"Pictures_Onset",1606.003,"13","Salty",13,15,5,2,"no","down","Left",1,"FF","FL",10,"down",433,1,"Guest13"
38,0.404805570840836,0.496999979019165,-45.6816711425781,138.915283203125,43.7252769470215,183.001,1305.997,282.995,"Pictures_Onset",225.997,"13","Healthy",13,15,5,3,"no","down","Left",0,"FL","FF",10,"down",499,1,"Guest13"
38,0.382416665554047,0.504187524318695,-56.260627746582,137.084365844727,43.0568771362305,248.998,1937.997,914.995,"Pictures_Onset",857.997,"13","Healthy",13,15,5,3,"no","down","Left",0,"FL","FF",10,"down",499,1,"Guest13"
38,0.422013312578201,0.521666705608368,-37.5214691162109,132.719879150391,41.4693374633789,400,2237.005,1214.003,"Pictures_Onset",1157.005,"13","Healthy",13,15,5,3,"no","down","Left",0,"FL","FF",10,"down",499,1,"Guest13"
38,0.576977789402008,0.516866624355316,35.7820014953613,133.920455932617,41.9055595397949,232,2704,1680.998,"Pictures_Onset",1624,"13","Salty",13,15,5,3,"no","down","Left",0,"FL","FF",10,"down",499,1,"Guest13"
39,0.616609513759613,0.509180963039398,54.5305633544922,135.834655761719,42.6027679443359,565.004,1483.994,448.999,"Pictures_Onset",403.994,"13","Healthy",13,15,5,4,"no","up","Right",0,"FF","FL",10,"up",492,1,"Guest13"
39,0.407484829425812,0.470333307981491,-44.4500045776367,145.591491699219,46.1533279418945,167.001,2815.002,1780.007,"Pictures_Onset",1735.002,"13","Salty",13,15,5,4,"no","up","Right",0,"FF","FL",10,"up",492,1,"Guest13"
40,0.609746694564819,0.519213378429413,51.3439979553223,133.301986694336,41.6809310913086,399.002,1254.003,232.998,"Pictures_Onset",174.003,"13","Salty",13,15,5,1,"no","up","Right",1,"FL","FF",10,"up",476,1,"Guest13"
40,0.619562566280365,0.510822892189026,55.9532203674316,135.427185058594,42.4540672302246,514.995,1687.002,665.997,"Pictures_Onset",607.002,"13","Salty",13,15,5,1,"no","up","Right",1,"FL","FF",10,"up",476,1,"Guest13"
40,0.617757618427277,0.517393827438354,55.122875213623,133.784622192383,41.857120513916,714.996,2236.006,1215.001,"Pictures_Onset",1156.006,"13","Salty",13,15,5,1,"no","up","Right",1,"FL","FF",10,"up",476,1,"Guest13"
41,0.6271111369133,0.481370389461517,59.5044479370117,142.793685913086,45.1351852416992,134.003,1506.995,65.9969999999998,"Pictures_Onset",426.995,"13","Healthy",13,15,5,3,"no","up","Left",1,"FS","FL",11,"up",484,1,"Guest13"
41,0.420283377170563,0.480166673660278,-38.3166656494141,143.101974487305,45.2491683959961,316.007,1706.995,265.997,"Pictures_Onset",626.995,"13","Sugary",13,15,5,3,"no","up","Left",1,"FS","FL",11,"up",484,1,"Guest13"
41,0.611644446849823,0.491600006818771,52.255558013916,140.238235473633,44.2062225341797,232.998,2105.997,664.999,"Pictures_Onset",1025.997,"13","Healthy",13,15,5,3,"no","up","Left",1,"FS","FL",11,"up",484,1,"Guest13"
42,0.597064077854156,0.517871856689453,45.325252532959,133.636779785156,41.8017845153809,416.999,1236.006,182.003,"Pictures_Onset",156.006,"13","Sugary",13,15,5,4,"no","up","Left",0,"FL","FS",11,"up",602,1,"Guest13"
42,0.613743543624878,0.502282083034515,53.197940826416,137.562301635742,43.2315406799316,200.999,2500.006,1446.003,"Pictures_Onset",1420.006,"13","Sugary",13,15,5,4,"no","up","Left",0,"FL","FS",11,"up",602,1,"Guest13"
42,0.571333348751068,0.501370429992676,33.1188888549805,137.794082641602,43.3159217834473,134.003,2849.997,1795.994,"Pictures_Onset",1769.997,"13","Sugary",13,15,5,4,"no","up","Left",0,"FL","FS",11,"up",602,1,"Guest13"
43,0.628888845443726,0.511160492897034,60.3554267883301,135.343933105469,42.4240760803223,432,1894.003,866.009,"Pictures_Onset",814.003,"13","Healthy",13,15,5,1,"no","down","Right",0,"FS","FL",11,"down",412,1,"Guest13"
43,0.60927027463913,0.496783852577209,51.0904502868652,138.934066772461,43.7312698364258,598.989,2358.003,1330.009,"Pictures_Onset",1278.003,"13","Healthy",13,15,5,1,"no","down","Right",0,"FS","FL",11,"down",412,1,"Guest13"
44,0.594222187995911,0.47111114859581,43.9808349609375,145.393615722656,46.0811157226562,183.002,1384.998,333.004,"Pictures_Onset",304.998,"13","Sugary",13,15,5,2,"no","down","Right",1,"FL","FS",11,"down",1556,1,"Guest13"
44,0.595205187797546,0.474512845277786,44.4400024414062,144.543350219727,45.7723045349121,200,1600.998,549.004,"Pictures_Onset",520.998,"13","Sugary",13,15,5,2,"no","down","Right",1,"FL","FS",11,"down",1556,1,"Guest13"
44,0.585250020027161,0.483500003814697,39.7016677856445,142.287078857422,44.9500007629395,114.995,1834.995,783.001,"Pictures_Onset",754.995,"13","Sugary",13,15,5,2,"no","down","Right",1,"FL","FS",11,"down",1556,1,"Guest13"
44,0.409307688474655,0.495897471904755,-43.5492286682129,139.200775146484,43.827693939209,200,2016.998,965.004,"Pictures_Onset",936.998,"13","Healthy",13,15,5,2,"no","down","Right",1,"FL","FS",11,"down",1556,1,"Guest13"
44,0.408090949058533,0.484787851572037,-44.1357574462891,141.974548339844,44.8378791809082,167.001,2249.997,1198.003,"Pictures_Onset",1169.997,"13","Healthy",13,15,5,2,"no","down","Right",1,"FL","FS",11,"down",1556,1,"Guest13"
44,0.610385954380035,0.47252631187439,51.6024589538574,145.002258300781,45.9387702941895,301.005,2498.995,1447.001,"Pictures_Onset",1418.995,"13","Sugary",13,15,5,2,"no","down","Right",1,"FL","FS",11,"down",1556,1,"Guest13"
44,0.609133362770081,0.482033312320709,50.9796676635742,142.673004150391,45.0900001525879,150.004,2832.998,1781.004,"Pictures_Onset",1752.998,"13","Sugary",13,15,5,2,"no","down","Right",1,"FL","FS",11,"down",1556,1,"Guest13"
45,0.587440848350525,0.534881711006165,40.7540855407715,129.402587890625,40.2608604431152,499.008,1048.998,16.998,"Pictures_Onset",-31.002,"13","Healthy",13,15,5,4,"no","up","Left",1,"FS","FL",12,"up",445,1,"Guest13"
45,0.394230782985687,0.477333337068558,-50.6782035827637,143.83821105957,45.5171852111816,200,1648,616,"Pictures_Onset",568,"13","Sugary",13,15,5,4,"no","up","Left",1,"FS","FL",12,"up",445,1,"Guest13"
45,0.365666687488556,0.450133323669434,-64.1893310546875,150.646331787109,47.9936637878418,151.002,1896.998,864.998,"Pictures_Onset",816.998,"13","Sugary",13,15,5,4,"no","up","Left",1,"FS","FL",12,"up",445,1,"Guest13"
45,0.375566631555557,0.450500011444092,-59.5340042114258,150.56266784668,47.9636688232422,150.003,2080,1048,"Pictures_Onset",1000,"13","Sugary",13,15,5,4,"no","up","Left",1,"FS","FL",12,"up",445,1,"Guest13"
45,0.612736761569977,0.486508727073669,52.7449150085449,141.540328979492,44.6801719665527,298.996,2296.998,1264.998,"Pictures_Onset",1216.998,"13","Healthy",13,15,5,4,"no","up","Left",1,"FS","FL",12,"up",445,1,"Guest13"
45,0.610954582691193,0.499484837055206,51.8842430114746,138.280136108398,43.4934844970703,349.99,2629.005,1597.005,"Pictures_Onset",1549.005,"13","Healthy",13,15,5,4,"no","up","Left",1,"FS","FL",12,"up",445,1,"Guest13"
46,0.630354225635529,0.491968750953674,61.0639610290527,140.158432006836,44.1757278442383,516.007,1480.998,364.992,"Pictures_Onset",400.998,"13","Sugary",13,15,5,1,"no","up","Left",0,"FL","FS",12,"up",367,1,"Guest13"
46,0.421666711568832,0.522962927818298,-37.6862945556641,132.394821166992,41.3514785766602,133.99,2330.01,1214.004,"Pictures_Onset",1250.01,"13","Healthy",13,15,5,1,"no","up","Left",0,"FL","FS",12,"up",367,1,"Guest13"
46,0.423857152462006,0.522142827510834,-36.728572845459,132.623336791992,41.4352378845215,100.006,2496,1379.994,"Pictures_Onset",1416,"13","Healthy",13,15,5,1,"no","up","Left",0,"FL","FS",12,"up",367,1,"Guest13"
46,0.572500050067902,0.48963326215744,33.6456680297852,140.721664428711,44.3810005187988,316.006,2663.002,1546.996,"Pictures_Onset",1583.002,"13","Sugary",13,15,5,1,"no","up","Left",0,"FL","FS",12,"up",367,1,"Guest13"
47,0.629362344741821,0.479492723941803,60.5915908813477,143.311157226562,45.3236236572266,367.002,1616.998,582.003,"Pictures_Onset",536.998,"13","Healthy",13,15,5,2,"no","down","Right",0,"FS","FL",12,"down",533,1,"Guest13"
47,0.603032350540161,0.511279582977295,48.0943031311035,135.309692382812,42.4115104675293,498.995,2033.997,999.002,"Pictures_Onset",953.997,"13","Healthy",13,15,5,2,"no","down","Right",0,"FS","FL",12,"down",533,1,"Guest13"
48,0.579812467098236,0.508062481880188,37.1754875183105,136.123916625977,42.7077789306641,782.003,1251.994,149.005,"Pictures_Onset",171.994,"13","Sugary",13,15,5,3,"no","down","Right",1,"FL","FS",12,"down",447,1,"Guest13"
48,0.594462037086487,0.48712882399559,44.0950813293457,141.376724243164,44.6202239990234,713.996,2067.994,965.005,"Pictures_Onset",987.994,"13","Sugary",13,15,5,3,"no","down","Right",1,"FL","FS",12,"down",447,1,"Guest13"
48,0.611000001430511,0.48266664147377,51.8861083984375,142.498046875,45.026668548584,182.989,2816.998,1714.009,"Pictures_Onset",1736.998,"13","Sugary",13,15,5,3,"no","down","Right",1,"FL","FS",12,"down",447,1,"Guest13"
50,0.635488092899323,0.431369066238403,63.4338073730469,155.314407348633,49.6926231384277,216,1680.998,599.001,"Pictures_Onset",600.998,"13","Sugary",13,15,5,2,"no","up","Left",0,"FL","FS",13,"up",482,1,"Guest13"
50,0.622690618038177,0.513761878013611,57.4668998718262,134.690948486328,42.1871528625488,216,1946.995,864.998,"Pictures_Onset",866.995,"13","Sugary",13,15,5,2,"no","up","Left",0,"FL","FS",13,"up",482,1,"Guest13"
50,0.623666703701019,0.518644452095032,57.8553276062012,133.489120483398,41.7495536804199,232,2196.992,1114.995,"Pictures_Onset",1116.992,"13","Sugary",13,15,5,2,"no","up","Left",0,"FL","FS",13,"up",482,1,"Guest13"
50,0.597185134887695,0.501074075698853,45.3344459533691,137.88444519043,43.3507423400879,134.003,2811.994,1729.997,"Pictures_Onset",1731.994,"13","Sugary",13,15,5,2,"no","up","Left",0,"FL","FS",13,"up",482,1,"Guest13"
51,0.398972243070602,0.473277807235718,-48.4197235107422,144.846115112305,45.8813896179199,182.989,1286.003,249.011,"Pictures_Onset",206.003,"13","Sugary",13,15,5,3,"no","down","Right",0,"FS","FL",13,"down",458,1,"Guest13"
51,0.597411751747131,0.486098021268845,45.4562721252441,141.593139648438,44.6996116638184,266.995,1718.003,681.011,"Pictures_Onset",638.003,"13","Healthy",13,15,5,3,"no","down","Right",0,"FS","FL",13,"down",458,1,"Guest13"
51,0.570579051971436,0.505035161972046,32.7285919189453,136.874053955078,42.9810562133789,299.008,2018.995,982.003,"Pictures_Onset",938.995,"13","Healthy",13,15,5,3,"no","down","Right",0,"FS","FL",13,"down",458,1,"Guest13"
52,0.621210515499115,0.479333370923996,56.7198219299316,143.32893371582,45.3305320739746,298.01,1420.992,400,"Pictures_Onset",340.992,"13","Sugary",13,15,5,4,"no","down","Right",1,"FL","FS",13,"down",589,1,"Guest13"
52,0.620148122310638,0.488962978124619,56.2362937927246,140.87370300293,44.4381523132324,133.991,1752.998,732.006,"Pictures_Onset",672.998,"13","Sugary",13,15,5,4,"no","down","Right",1,"FL","FS",13,"down",589,1,"Guest13"
52,0.636833310127258,0.524555504322052,64.0966720581055,131.998336791992,41.2061080932617,384,1918.989,897.997,"Pictures_Onset",838.989,"13","Sugary",13,15,5,4,"no","down","Right",1,"FL","FS",13,"down",589,1,"Guest13"
52,0.633000016212463,0.543458342552185,62.3166656494141,127.294998168945,39.4937477111816,117.005,2334.989,1313.997,"Pictures_Onset",1254.989,"13","Sugary",13,15,5,4,"no","down","Right",1,"FL","FS",13,"down",589,1,"Guest13"
52,0.643145799636841,0.457499980926514,67.1035461425781,148.802093505859,47.3218727111816,248.999,2501.99,1480.998,"Pictures_Onset",1421.99,"13","Sugary",13,15,5,4,"no","down","Right",1,"FL","FS",13,"down",589,1,"Guest13"
52,0.655435860157013,0.485384613275528,72.8558959960938,141.764877319336,44.7602577209473,200.998,2784,1763.008,"Pictures_Onset",1704,"13","Sugary",13,15,5,4,"no","down","Right",1,"FL","FS",13,"down",589,1,"Guest13"
53,0.61446076631546,0.487833291292191,53.5334281921387,141.204406738281,44.5575523376465,549.005,1524.992,498.995,"Pictures_Onset",444.992,"13","Healthy",13,15,5,2,"no","up","Left",1,"FS","FL",14,"up",540,1,"Guest13"
53,0.622063517570496,0.483150750398636,57.1092834472656,142.35188293457,44.9750061035156,681.997,2106.995,1080.998,"Pictures_Onset",1026.995,"13","Healthy",13,15,5,2,"no","up","Left",1,"FS","FL",14,"up",540,1,"Guest13"
53,0.587148129940033,0.550370335578918,40.6622200012207,125.553329467773,38.8603668212891,132.992,2840,1814.003,"Pictures_Onset",1760,"13","Healthy",13,15,5,2,"no","up","Left",1,"FS","FL",14,"up",540,1,"Guest13"
54,0.586723446846008,0.485021382570267,40.4278030395508,141.913269042969,44.8159599304199,764.992,1363.008,249.997,"Pictures_Onset",283.008,"13","Sugary",13,15,5,3,"no","up","Left",0,"FL","FS",14,"up",591,1,"Guest13"
55,0.616690516471863,0.505714237689972,54.6185684204102,136.698806762695,42.9176216125488,216.999,1226.995,200,"Pictures_Onset",146.995,"13","Healthy",13,15,5,4,"no","down","Right",0,"FS","FL",14,"down",473,1,"Guest13"
55,0.623701155185699,0.475586235523224,57.9001197814941,144.266311645508,45.6711463928223,464.998,1476.992,449.997,"Pictures_Onset",396.992,"13","Healthy",13,15,5,4,"no","down","Right",0,"FS","FL",14,"down",473,1,"Guest13"
55,0.621130108833313,0.495170682668686,56.7108917236328,139.358383178711,43.8851203918457,664.998,1976,949.005,"Pictures_Onset",896,"13","Healthy",13,15,5,4,"no","down","Right",0,"FS","FL",14,"down",473,1,"Guest13"
55,0.617794930934906,0.502564072608948,55.0884628295898,137.472305297852,43.1982040405273,199.002,2674.995,1648,"Pictures_Onset",1594.995,"13","Healthy",13,15,5,4,"no","down","Right",0,"FS","FL",14,"down",473,1,"Guest13"
56,0.618333280086517,0.515770792961121,55.3554153442383,134.195541381836,42.0058364868164,516.006,1217.997,183.002,"Pictures_Onset",137.997,"13","Sugary",13,15,5,1,"no","down","Right",1,"FL","FS",14,"down",321,1,"Guest13"
56,0.61675763130188,0.522333323955536,54.6312141418457,132.505142211914,41.3912086486816,350.003,1767.002,732.007,"Pictures_Onset",687.002,"13","Sugary",13,15,5,1,"no","down","Right",1,"FL","FS",14,"down",321,1,"Guest13"
56,0.627313852310181,0.501359462738037,59.606086730957,137.791458129883,43.3153610229492,831.001,2151.002,1116.007,"Pictures_Onset",1071.002,"13","Sugary",13,15,5,1,"no","down","Right",1,"FL","FS",14,"down",321,1,"Guest13"
57,0.563274502754211,0.501843154430389,29.3107814788818,137.661560058594,43.2664756774902,265.997,1034.995,0,"Pictures_Onset",-45.0050000000001,"13","Healthy",13,15,5,3,"no","up","Left",1,"FS","FL",15,"up",558,1,"Guest13"
57,0.561969637870789,0.510424256324768,28.7204570770264,135.511825561523,42.4859046936035,348.992,1335.002,300.007,"Pictures_Onset",255.002,"13","Healthy",13,15,5,3,"no","up","Left",1,"FS","FL",15,"up",558,1,"Guest13"
57,0.604985475540161,0.509463727474213,49.0900039672852,135.771026611328,42.5784034729004,366.004,1733.99,698.995,"Pictures_Onset",653.99,"13","Healthy",13,15,5,3,"no","up","Left",1,"FS","FL",15,"up",558,1,"Guest13"
57,0.627588272094727,0.502666711807251,59.7539215087891,137.480194091797,43.2017631530762,264.999,2133.99,1098.995,"Pictures_Onset",1053.99,"13","Healthy",13,15,5,3,"no","up","Left",1,"FS","FL",15,"up",558,1,"Guest13"
57,0.57945328950882,0.496666729450226,36.9990692138672,138.978149414062,43.7466659545898,398.988,2583.002,1548.007,"Pictures_Onset",1503.002,"13","Healthy",13,15,5,3,"no","up","Left",1,"FS","FL",15,"up",558,1,"Guest13"
58,0.627499997615814,0.493366628885269,59.6443367004395,139.777008056641,44.0373344421387,149.005,1457.997,366.003,"Pictures_Onset",377.997,"13","Sugary",13,15,5,4,"no","up","Left",0,"FL","FS",15,"up",513,1,"Guest13"
58,0.628533363342285,0.498866647481918,60.2059936523438,138.442657470703,43.5516662597656,149.005,1640.998,549.004,"Pictures_Onset",560.998,"13","Sugary",13,15,5,4,"no","up","Left",0,"FL","FS",15,"up",513,1,"Guest13"
58,0.589948713779449,0.506205141544342,41.8892250061035,136.564361572266,42.8689765930176,200,2155.994,1064,"Pictures_Onset",1075.994,"13","Sugary",13,15,5,4,"no","up","Left",0,"FL","FS",15,"up",513,1,"Guest13"
58,0.598708391189575,0.507250010967255,46.0945854187012,136.30207824707,42.774169921875,115.993,2389.005,1297.011,"Pictures_Onset",1309.005,"13","Sugary",13,15,5,4,"no","up","Left",0,"FL","FS",15,"up",513,1,"Guest13"
59,0.609266698360443,0.511549949645996,51.0419998168945,135.275665283203,42.3998336791992,317.005,1244.992,148.992,"Pictures_Onset",164.992,"13","Healthy",13,15,5,1,"no","down","Right",0,"FS","FL",15,"down",452,1,"Guest13"
59,0.642857134342194,0.508380949497223,66.9647598266602,136.030487060547,42.6747627258301,100.007,1594.995,498.995,"Pictures_Onset",514.995,"13","Healthy",13,15,5,1,"no","down","Right",0,"FS","FL",15,"down",452,1,"Guest13"
59,0.624393939971924,0.506303012371063,58.2669715881348,136.573013305664,42.8709106445312,166.003,2010.995,914.995,"Pictures_Onset",930.995,"13","Healthy",13,15,5,1,"no","down","Right",0,"FS","FL",15,"down",452,1,"Guest13"
59,0.583900034427643,0.509800016880035,39.0473289489746,135.696762084961,42.5526657104492,483.008,2492.992,1396.992,"Pictures_Onset",1412.992,"13","Healthy",13,15,5,1,"no","down","Right",0,"FS","FL",15,"down",452,1,"Guest13"
60,0.603296279907227,0.493629604578018,48.3166656494141,139.75,44.0281524658203,133.005,1756.992,731.994,"Pictures_Onset",676.992,"13","Sugary",13,15,5,2,"no","down","Right",1,"FL","FS",15,"down",482,1,"Guest13"
60,0.608571410179138,0.509166717529297,50.7604789733887,135.826187133789,42.5995254516602,216,1922.995,897.997,"Pictures_Onset",842.995,"13","Sugary",13,15,5,2,"no","down","Right",1,"FL","FS",15,"down",482,1,"Guest13"
60,0.394047647714615,0.481619030237198,-50.7609519958496,142.740020751953,45.1164283752441,215.987,2240,1215.002,"Pictures_Onset",1160,"13","Healthy",13,15,5,2,"no","down","Right",1,"FL","FS",15,"down",482,1,"Guest13"
60,0.613555610179901,0.493074089288712,53.1770362854004,139.878158569336,44.0744438171387,133.005,2538.995,1513.997,"Pictures_Onset",1458.995,"13","Sugary",13,15,5,2,"no","down","Right",1,"FL","FS",15,"down",482,1,"Guest13"
60,0.608288884162903,0.497288912534714,50.6435508728027,138.798645019531,43.6817779541016,233.997,2704.998,1680,"Pictures_Onset",1624.998,"13","Sugary",13,15,5,2,"no","down","Right",1,"FL","FS",15,"down",482,1,"Guest13"
61,0.626393914222717,0.502727270126343,59.2254524230957,137.474838256836,43.2006072998047,165.005,1429.99,400,"Pictures_Onset",349.99,"13","Healthy",13,15,5,4,"no","down","Left",1,"FS","FL",16,"down",460,1,"Guest13"
61,0.631300032138824,0.4932000041008,61.4516716003418,139.8193359375,44.052001953125,149.005,2028.992,999.002,"Pictures_Onset",948.992,"13","Healthy",13,15,5,4,"no","down","Left",1,"FS","FL",16,"down",460,1,"Guest13"
61,0.603317499160767,0.515174567699432,48.2461891174316,134.322845458984,42.0526924133301,332.006,2228.992,1199.002,"Pictures_Onset",1148.992,"13","Healthy",13,15,5,4,"no","down","Left",1,"FS","FL",16,"down",460,1,"Guest13"
61,0.604888916015625,0.518472194671631,48.9855537414551,133.533889770508,41.7658348083496,183.001,2593.997,1564.007,"Pictures_Onset",1513.997,"13","Healthy",13,15,5,4,"no","down","Left",1,"FS","FL",16,"down",460,1,"Guest13"
62,0.606620311737061,0.524981439113617,49.8247261047363,131.89241027832,41.1683311462402,1180.992,1251.008,166.003,"Pictures_Onset",171.008,"13","Sugary",13,15,5,1,"no","down","Left",0,"FL","FS",16,"down",472,1,"Guest13"
62,0.549129664897919,0.518870413303375,22.6246280670166,133.442031860352,41.7312965393066,282.996,2532.006,1447.001,"Pictures_Onset",1452.006,"13","Sugary",13,15,5,1,"no","down","Left",0,"FL","FS",16,"down",472,1,"Guest13"
63,0.405282080173492,0.491692274808884,-45.4507675170898,140.217681884766,44.1978187561035,416,1337.011,299.008,"Pictures_Onset",257.011,"13","Sugary",13,15,5,2,"no","up","Right",0,"FS","FL",16,"up",437,1,"Guest13"
63,0.407363623380661,0.492545485496521,-44.4809074401855,140.045150756836,44.1357574462891,167.001,1786.01,748.007,"Pictures_Onset",706.01,"13","Sugary",13,15,5,2,"no","up","Right",0,"FS","FL",16,"up",437,1,"Guest13"
63,0.591875016689301,0.483916670084,42.8245849609375,142.163757324219,44.90625,117.005,2019.008,981.005,"Pictures_Onset",939.008,"13","Healthy",13,15,5,2,"no","up","Right",0,"FS","FL",16,"up",437,1,"Guest13"
63,0.588260054588318,0.504426717758179,41.1180038452148,137.050033569336,43.0452690124512,815.002,2169.011,1131.008,"Pictures_Onset",1089.011,"13","Healthy",13,15,5,2,"no","up","Right",0,"FS","FL",16,"up",437,1,"Guest13"
64,0.622527778148651,0.485027760267258,57.2872276306152,141.908325195312,44.8127746582031,183.001,1665.997,632,"Pictures_Onset",585.997,"13","Sugary",13,15,5,3,"no","up","Right",1,"FL","FS",16,"up",1907,1,"Guest13"
64,0.616683304309845,0.479625046253204,54.5639152526855,143.238830566406,45.2968292236328,649.997,1932.006,898.009,"Pictures_Onset",852.006,"13","Sugary",13,15,5,3,"no","up","Right",1,"FL","FS",16,"up",1907,1,"Guest13"
64,0.618275284767151,0.487739115953445,55.3108749389648,141.223617553711,44.5642051696777,367.002,2614.003,1580.006,"Pictures_Onset",1534.003,"13","Sugary",13,15,5,3,"no","up","Right",1,"FL","FS",16,"up",1907,1,"Guest13"
65,0.401399999856949,0.481266647577286,-47.2503318786621,142.823333740234,45.1466636657715,149.005,1376,350.003,"Pictures_Onset",296,"13","Sugary",13,15,5,1,"no","down","Left",1,"FS","FL",17,"down",354,1,"Guest13"
65,0.608666658401489,0.509969651699066,50.897274017334,135.600296020508,42.5190887451172,166.003,1758.003,732.006,"Pictures_Onset",678.003,"13","Healthy",13,15,5,1,"no","down","Left",1,"FS","FL",17,"down",354,1,"Guest13"
65,0.642052054405212,0.506052076816559,66.6209411621094,136.648727416992,42.8983345031738,514.995,1975.002,949.005,"Pictures_Onset",895.002,"13","Healthy",13,15,5,1,"no","down","Left",1,"FS","FL",17,"down",354,1,"Guest13"
65,0.656679451465607,0.48780769109726,73.5235824584961,141.218200683594,44.5616683959961,416,2523.994,1497.997,"Pictures_Onset",1443.994,"13","Healthy",13,15,5,1,"no","down","Left",1,"FS","FL",17,"down",354,1,"Guest13"
66,0.629763901233673,0.464388966560364,60.780689239502,147.071517944336,46.6927833557129,383.001,1474.01,448.999,"Pictures_Onset",394.01,"13","Sugary",13,15,5,2,"no","down","Left",0,"FL","FS",17,"down",497,1,"Guest13"
66,0.625018537044525,0.476888924837112,58.597770690918,143.902587890625,45.5390777587891,283.993,1890.01,864.999,"Pictures_Onset",810.01,"13","Sugary",13,15,5,2,"no","down","Left",0,"FL","FS",17,"down",497,1,"Guest13"
66,0.5800861120224,0.489247351884842,37.2283897399902,140.837738037109,44.4237632751465,499.008,2240,1214.989,"Pictures_Onset",1160,"13","Sugary",13,15,5,2,"no","down","Left",0,"FL","FS",17,"down",497,1,"Guest13"
66,0.582615435123444,0.492615401744843,38.4758987426758,139.997955322266,44.118465423584,200,2772.006,1746.995,"Pictures_Onset",1692.006,"13","Sugary",13,15,5,2,"no","down","Left",0,"FL","FS",17,"down",497,1,"Guest13"
67,0.396689683198929,0.497045904397964,-49.4875869750977,138.881622314453,43.7110290527344,465.997,1224,200,"Pictures_Onset",144,"13","Sugary",13,15,5,3,"no","up","Right",0,"FS","FL",17,"up",530,1,"Guest13"
67,0.414686292409897,0.476705878973007,-41.0482368469238,143.972961425781,45.5651016235352,265.997,1722.995,698.995,"Pictures_Onset",642.995,"13","Sugary",13,15,5,3,"no","up","Right",0,"FS","FL",17,"up",530,1,"Guest13"
68,0.60801237821579,0.509493887424469,50.4672775268555,135.75666809082,42.5740737915039,432,1244.992,216.998,"Pictures_Onset",164.992,"13","Sugary",13,15,5,4,"no","up","Right",1,"FL","FS",17,"up",506,1,"Guest13"
68,0.605914354324341,0.51621425151825,49.5080451965332,134.076873779297,41.9629096984863,1148.007,1709.99,681.996,"Pictures_Onset",629.99,"13","Sugary",13,15,5,4,"no","up","Right",1,"FL","FS",17,"up",506,1,"Guest13"
69,0.600402772426605,0.501138865947723,46.866943359375,137.870010375977,43.3438911437988,382.003,1258.995,233.997,"Pictures_Onset",178.995,"13","Healthy",13,15,5,2,"no","down","Left",1,"FS","FL",18,"down",437,1,"Guest13"
69,0.597789406776428,0.510447323322296,45.7026252746582,135.523056030273,42.4891204833984,615.002,1674.995,649.997,"Pictures_Onset",594.995,"13","Healthy",13,15,5,2,"no","down","Left",1,"FS","FL",18,"down",437,1,"Guest13"
69,0.59804767370224,0.515444457530975,45.7887306213379,134.266189575195,42.0322189331055,334.003,2322.995,1297.997,"Pictures_Onset",1242.995,"13","Healthy",13,15,5,2,"no","down","Left",1,"FS","FL",18,"down",437,1,"Guest13"
69,0.608240783214569,0.506888866424561,50.5398101806641,136.442794799805,42.8246307373047,281.997,2689.997,1664.999,"Pictures_Onset",1609.997,"13","Healthy",13,15,5,2,"no","down","Left",1,"FS","FL",18,"down",437,1,"Guest13"
70,0.606894791126251,0.507929801940918,49.9967842102051,136.154632568359,42.7189521789551,932.006,1243.994,216,"Pictures_Onset",163.994,"13","Sugary",13,15,5,3,"no","down","Left",0,"FL","FS",18,"down",556,1,"Guest13"
70,0.631547570228577,0.506809532642365,61.5980949401855,136.4326171875,42.8207130432129,216,2208.998,1181.004,"Pictures_Onset",1128.998,"13","Sugary",13,15,5,3,"no","down","Left",0,"FL","FS",18,"down",556,1,"Guest13"
70,0.633897423744202,0.51424366235733,62.708984375,134.583068847656,42.1467933654785,416,2457.997,1430.003,"Pictures_Onset",1377.997,"13","Sugary",13,15,5,3,"no","down","Left",0,"FL","FS",18,"down",556,1,"Guest13"
71,0.556629657745361,0.512759268283844,26.2014827728271,134.956481933594,42.2835121154785,283.008,1243.994,216.999,"Pictures_Onset",163.994,"13","Healthy",13,15,5,4,"no","up","Right",0,"FS","FL",18,"up",462,1,"Guest13"
71,0.594607830047607,0.511451065540314,44.1592140197754,135.288833618164,42.403923034668,266.995,1576,549.005,"Pictures_Onset",496,"13","Healthy",13,15,5,4,"no","up","Right",0,"FS","FL",18,"up",462,1,"Guest13"
71,0.619803965091705,0.510607838630676,56.056468963623,135.442153930664,42.4590225219727,265.996,1875.994,848.999,"Pictures_Onset",795.994,"13","Healthy",13,15,5,4,"no","up","Right",0,"FS","FL",18,"up",462,1,"Guest13"
71,0.556523740291595,0.503666639328003,26.1817455291748,137.180633544922,43.0930099487305,333.005,2474.995,1448,"Pictures_Onset",1394.995,"13","Healthy",13,15,5,4,"no","up","Right",0,"FS","FL",18,"up",462,1,"Guest13"
72,0.415937483310699,0.504249930381775,-40.3929176330566,137.067916870117,43.0506210327148,249.996,1394.01,366.004,"Pictures_Onset",314.01,"13","Healthy",13,15,5,1,"no","up","Right",1,"FL","FS",18,"down",390,0,"Guest13"
72,0.614049971103668,0.521333336830139,53.3168334960938,132.798324584961,41.4979972839355,316.007,1710.003,681.997,"Pictures_Onset",630.003,"13","Sugary",13,15,5,1,"no","up","Right",1,"FL","FS",18,"down",390,0,"Guest13"
72,0.613523840904236,0.532785654067993,53.1326217651367,129.939529418945,40.4578590393066,216,2060.006,1032,"Pictures_Onset",980.006,"13","Sugary",13,15,5,1,"no","up","Right",1,"FL","FS",18,"down",390,0,"Guest13"
72,0.394515126943588,0.523606061935425,-50.473331451416,132.239700317383,41.2951507568359,168,2375.002,1346.996,"Pictures_Onset",1295.002,"13","Healthy",13,15,5,1,"no","up","Right",1,"FL","FS",18,"down",390,0,"Guest13"
72,0.560166656970978,0.536770820617676,27.8727073669434,128.9375,40.0910415649414,249.997,2692.006,1664,"Pictures_Onset",1612.006,"13","Sugary",13,15,5,1,"no","up","Right",1,"FL","FS",18,"down",390,0,"Guest13"
73,0.633242428302765,0.45472726225853,62.4087867736816,149.483642578125,47.5718231201172,166.989,1752.013,632.013,"Pictures_Onset",672.013,"13","Healthy",13,15,5,3,"no","down","Left",1,"FS","FL",19,"down",421,1,"Guest13"
73,0.424933284521103,0.498586744070053,-36.1544036865234,138.520278930664,43.5802574157715,400,2251.008,1131.008,"Pictures_Onset",1171.008,"13","Sugary",13,15,5,3,"no","down","Left",1,"FS","FL",19,"down",421,1,"Guest13"
73,0.583627462387085,0.48103928565979,39.0080375671387,142.87077331543,45.1633338928223,266.01,2718.003,1598.003,"Pictures_Onset",1638.003,"13","Healthy",13,15,5,3,"no","down","Left",1,"FS","FL",19,"down",421,1,"Guest13"
74,0.596072435379028,0.49830436706543,44.8541984558105,138.575668334961,43.6010131835938,366.003,2040,1015.002,"Pictures_Onset",960,"13","Sugary",13,15,5,4,"no","down","Left",0,"FL","FS",19,"down",449,1,"Guest13"
74,0.591676533222198,0.508411765098572,42.7848091125488,136.04216003418,42.678825378418,550.003,2439.002,1414.004,"Pictures_Onset",1359.002,"13","Sugary",13,15,5,4,"no","down","Left",0,"FL","FS",19,"down",449,1,"Guest13"
75,0.624116718769073,0.487549960613251,58.1111640930176,141.31184387207,44.595832824707,315.994,1440,416,"Pictures_Onset",360,"13","Healthy",13,15,5,1,"no","up","Right",0,"FS","FL",19,"up",390,1,"Guest13"
75,0.624208271503448,0.494874984025955,58.2037506103516,139.397918701172,43.9016647338867,117.005,1788.992,764.992,"Pictures_Onset",708.992,"13","Healthy",13,15,5,1,"no","up","Right",0,"FS","FL",19,"up",390,1,"Guest13"
75,0.597225844860077,0.480311810970306,45.3978500366211,143.054534912109,45.2309684753418,499.008,1955.994,931.994,"Pictures_Onset",875.994,"13","Healthy",13,15,5,1,"no","up","Right",0,"FS","FL",19,"up",390,1,"Guest13"
75,0.59906667470932,0.486555516719818,46.243782043457,141.507415771484,44.667667388916,482.995,2488,1464,"Pictures_Onset",1408,"13","Healthy",13,15,5,1,"no","up","Right",0,"FS","FL",19,"up",390,1,"Guest13"
76,0.403208345174789,0.480333298444748,-46.381664276123,143.100830078125,45.2466697692871,117.005,1333.005,298.995,"Pictures_Onset",253.005,"13","Healthy",13,15,5,2,"no","up","Right",1,"FL","FS",19,"up",501,1,"Guest13"
76,0.610681176185608,0.480623155832291,51.7555046081543,142.994338989258,45.2092704772949,365.005,1534.003,499.993,"Pictures_Onset",454.003,"13","Sugary",13,15,5,2,"no","up","Right",1,"FL","FS",19,"up",501,1,"Guest13"
76,0.611851811408997,0.487962931394577,52.3066711425781,141.167037963867,44.5425872802734,134.004,1932.006,897.996,"Pictures_Onset",852.006,"13","Sugary",13,15,5,2,"no","up","Right",1,"FL","FS",19,"up",501,1,"Guest13"
76,0.590870440006256,0.480777740478516,42.3674049377441,142.989440917969,45.206485748291,282.995,2099.008,1064.998,"Pictures_Onset",1019.008,"13","Sugary",13,15,5,2,"no","up","Right",1,"FL","FS",19,"up",501,1,"Guest13"
76,0.611200094223022,0.500977754592896,51.9899940490723,137.91487121582,43.3606643676758,233.011,2415.002,1380.992,"Pictures_Onset",1335.002,"13","Sugary",13,15,5,2,"no","up","Right",1,"FL","FS",19,"up",501,1,"Guest13"
76,0.557092547416687,0.498666644096375,26.4312973022461,138.470901489258,43.5627784729004,282.995,2698.01,1664,"Pictures_Onset",1618.01,"13","Sugary",13,15,5,2,"no","up","Right",1,"FL","FS",19,"up",501,1,"Guest13"
77,0.619976937770844,0.483149439096451,56.1351699829102,142.375854492188,44.9828720092773,467.008,1396.992,364.992,"Pictures_Onset",316.992,"13","Healthy",13,15,5,4,"no","down","Left",1,"FS","FL",20,"down",485,1,"Guest13"
77,0.594833314418793,0.490499973297119,44.2261161804199,140.508895874023,44.3022193908691,183.002,1896.998,864.998,"Pictures_Onset",816.998,"13","Healthy",13,15,5,4,"no","down","Left",1,"FS","FL",20,"down",485,1,"Guest13"
77,0.554383397102356,0.480600029230118,25.0845012664795,143.005981445312,45.2128295898438,315.993,2429.005,1397.005,"Pictures_Onset",1349.005,"13","Healthy",13,15,5,4,"no","down","Left",1,"FS","FL",20,"down",485,1,"Guest13"
78,0.613516688346863,0.534533262252808,53.1396675109863,129.476333618164,40.2898330688477,316.006,1223.002,200.999,"Pictures_Onset",143.002,"13","Sugary",13,15,5,1,"no","down","Left",0,"FL","FS",20,"down",478,1,"Guest13"
78,0.64472222328186,0.548911154270172,67.8840026855469,125.876792907715,38.9775619506836,482.009,1655.002,632.999,"Pictures_Onset",575.002,"13","Sugary",13,15,5,1,"no","down","Left",0,"FL","FS",20,"down",478,1,"Guest13"
78,0.62226665019989,0.531816720962524,57.1991691589355,130.171997070312,40.5406608581543,317.005,2187.008,1165.005,"Pictures_Onset",1107.008,"13","Sugary",13,15,5,1,"no","down","Left",0,"FL","FS",20,"down",478,1,"Guest13"
78,0.593911111354828,0.506822228431702,43.8226699829102,136.451110839844,42.8277778625488,232.999,2537.011,1515.008,"Pictures_Onset",1457.011,"13","Sugary",13,15,5,1,"no","down","Left",0,"FL","FS",20,"down",478,1,"Guest13"
78,0.594694375991821,0.50988894701004,44.2055549621582,135.701950073242,42.5547218322754,183.002,2803.008,1781.005,"Pictures_Onset",1723.008,"13","Sugary",13,15,5,1,"no","down","Left",0,"FL","FS",20,"down",478,1,"Guest13"
79,0.612466633319855,0.497983455657959,52.6109199523926,138.631317138672,43.6202507019043,648.998,1247.002,65.0119999999999,"Pictures_Onset",167.002,"13","Healthy",13,15,5,2,"no","up","Right",0,"FS","FL",20,"up",443,1,"Guest13"
79,0.61558336019516,0.494708359241486,54.1329154968262,139.464172363281,43.9229125976562,115.993,1929.997,748.007,"Pictures_Onset",849.997,"13","Healthy",13,15,5,2,"no","up","Right",0,"FS","FL",20,"up",443,1,"Guest13"
79,0.621309578418732,0.486674666404724,56.7626190185547,141.476593017578,44.6558685302734,681.997,2080,898.01,"Pictures_Onset",1000,"13","Healthy",13,15,5,2,"no","up","Right",0,"FS","FL",20,"up",443,1,"Guest13"
79,0.584848523139954,0.497575759887695,39.5927276611328,138.742126464844,43.6609077453613,166.003,2827.994,1646.004,"Pictures_Onset",1747.994,"13","Healthy",13,15,5,2,"no","up","Right",0,"FS","FL",20,"up",443,1,"Guest13"
80,0.601955592632294,0.513911187648773,47.6452255249023,134.620010375977,42.1604423522949,481.996,1023.002,0,"Pictures_Onset",-56.998,"13","Sugary",13,15,5,3,"no","up","Right",1,"FL","FS",20,"up",716,1,"Guest13"
80,0.629458367824554,0.519416630268097,60.6685371398926,133.280014038086,41.6733360290527,248.999,1538.995,515.993,"Pictures_Onset",458.995,"13","Sugary",13,15,5,3,"no","up","Right",1,"FL","FS",20,"up",716,1,"Guest13"
80,0.628461480140686,0.524538516998291,60.1833305358887,132.029754638672,41.2187156677246,198.989,1822.003,799.001,"Pictures_Onset",742.003,"13","Sugary",13,15,5,3,"no","up","Right",1,"FL","FS",20,"up",716,1,"Guest13"
80,0.642614424228668,0.530083298683167,66.8294830322266,130.598022460938,40.6962509155273,516.007,2053.99,1030.988,"Pictures_Onset",973.99,"13","Sugary",13,15,5,3,"no","up","Right",1,"FL","FS",20,"up",716,1,"Guest13"
80,0.60073333978653,0.524688899517059,47.0091094970703,131.920669555664,41.1791114807129,232,2603.994,1580.992,"Pictures_Onset",1523.994,"13","Sugary",13,15,5,3,"no","up","Right",1,"FL","FS",20,"up",716,1,"Guest13"
