"trial_id","sx","sy","px","py","pz","duration","timestamp","trial_onset","label","label_onset","subject_nr.x","AOI_visited","subject_nr.y","fat_craving","sugar_craving","Block","practice","Arrow_Direction","Arrow_Position","Congruence","Left_Picture","Right_Picture","Pair_Number","response","response_time","accuracy","part_ID"
1,0.611481487751007,0.48345685005188,54.006160736084,142.669372558594,45.0903739929199,432,1615.002,582.004,"Pictures_Onset",575.002,"12","Healthy",12,20,20,1,"no","up","Left",1,"FF","FL",1,"up",491,1,"Guest12"
2,0.331666678190231,0.50406938791275,-79.8447189331055,137.447357177734,43.1901397705078,383.002,1234.995,199.987,"Pictures_Onset",194.995,"12","Healthy",12,20,20,2,"no","up","Left",0,"FL","FF",1,"up",497,1,"Guest12"
2,0.592426657676697,0.488853365182877,44.9013328552246,141.283996582031,44.5862655639648,399.001,1701.005,665.997,"Pictures_Onset",661.005,"12","Salty",12,20,20,2,"no","up","Left",0,"FL","FF",1,"up",497,1,"Guest12"
2,0.323906600475311,0.512506663799286,-83.5494689941406,135.309066772461,42.4117317199707,400,2183.002,1147.994,"Pictures_Onset",1143.002,"12","Healthy",12,20,20,2,"no","up","Left",0,"FL","FF",1,"up",497,1,"Guest12"
2,0.327148139476776,0.445222228765488,-82.0418472290039,152.304809570312,48.5974044799805,132.992,2716.006,1680.998,"Pictures_Onset",1676.006,"12","Healthy",12,20,20,2,"no","up","Left",0,"FL","FF",1,"up",497,1,"Guest12"
3,0.393083304166794,0.45787501335144,-50.4083366394043,149.133743286133,47.4433326721191,115.994,1208.998,184,"Pictures_Onset",168.998,"12","Salty",12,20,20,3,"no","down","Right",0,"FF","FL",1,"down",545,1,"Guest12"
3,0.389361053705215,0.452638894319534,-52.2252807617188,150.440002441406,47.9186134338379,182.989,1358.003,333.005,"Pictures_Onset",318.003,"12","Salty",12,20,20,3,"no","down","Right",0,"FF","FL",1,"down",545,1,"Guest12"
3,0.618861079216003,0.443416714668274,57.5177764892578,152.776382446289,48.7691612243652,183.002,1624,599.002,"Pictures_Onset",584,"12","Healthy",12,20,20,3,"no","down","Right",0,"FF","FL",1,"down",545,1,"Guest12"
3,0.65958970785141,0.429461508989334,77.0310287475586,156.322570800781,50.0610275268555,199.002,1906.995,881.997,"Pictures_Onset",866.995,"12","Healthy",12,20,20,3,"no","down","Right",0,"FF","FL",1,"down",545,1,"Guest12"
3,0.626711130142212,0.426066607236862,61.2828903198242,157.136672973633,50.3568878173828,232.998,2155.994,1130.996,"Pictures_Onset",1115.994,"12","Healthy",12,20,20,3,"no","down","Right",0,"FF","FL",1,"down",545,1,"Guest12"
3,0.617716670036316,0.378699988126755,57.0081672668457,169.127838134766,54.7201652526855,148.992,2440,1415.002,"Pictures_Onset",1400,"12","Healthy",12,20,20,3,"no","down","Right",0,"FF","FL",1,"down",545,1,"Guest12"
3,0.679250001907349,0.414333313703537,86.3758316040039,160.122772216797,51.4419441223145,182.988,2639.002,1614.004,"Pictures_Onset",1599.002,"12","Healthy",12,20,20,3,"no","down","Right",0,"FF","FL",1,"down",545,1,"Guest12"
4,0.338555574417114,0.481074005365372,-76.5225982666016,143.252960205078,45.3040733337402,134.003,1346.995,315.993,"Pictures_Onset",306.995,"12","Healthy",12,20,20,4,"no","down","Right",1,"FL","FF",1,"down",428,1,"Guest12"
4,0.615452349185944,0.487488001585007,55.9269065856934,141.642623901367,44.7171440124512,449.996,1663.002,632,"Pictures_Onset",623.002,"12","Salty",12,20,20,4,"no","down","Right",1,"FL","FF",1,"down",428,1,"Guest12"
4,0.6117143034935,0.493619024753571,54.0547676086426,140.075241088867,44.1461868286133,100.006,2145.997,1114.995,"Pictures_Onset",1105.997,"12","Salty",12,20,20,4,"no","down","Right",1,"FL","FF",1,"down",428,1,"Guest12"
4,0.377060621976852,0.483424216508865,-58.1642417907715,142.686065673828,45.0960578918457,167.002,2328.998,1297.996,"Pictures_Onset",1288.998,"12","Healthy",12,20,20,4,"no","down","Right",1,"FL","FF",1,"down",428,1,"Guest12"
4,0.379875004291534,0.47329169511795,-56.8312492370605,145.214996337891,46.0162506103516,115.994,2528.998,1497.996,"Pictures_Onset",1488.998,"12","Healthy",12,20,20,4,"no","down","Right",1,"FL","FF",1,"down",428,1,"Guest12"
5,0.676768064498901,0.455000013113022,85.224494934082,149.808547973633,47.6885452270508,366.003,1248,215.987,"Pictures_Onset",208,"12","Healthy",12,20,20,2,"no","up","Left",1,"FF","FL",2,"up",469,1,"Guest12"
5,0.629911065101624,0.469822227954865,62.840217590332,146.093994140625,46.336669921875,232.999,1681.011,648.998,"Pictures_Onset",641.011,"12","Healthy",12,20,20,2,"no","up","Left",1,"FF","FL",2,"up",469,1,"Guest12"
5,0.414166688919067,0.486999988555908,-40.3826675415039,141.748016357422,44.7560005187988,315.993,2130.01,1097.997,"Pictures_Onset",1090.01,"12","Salty",12,20,20,2,"no","up","Left",1,"FF","FL",2,"up",469,1,"Guest12"
5,0.40003702044487,0.464074075222015,-47.174072265625,147.54296875,46.8648223876953,133.004,2479.002,1446.989,"Pictures_Onset",1439.002,"12","Salty",12,20,20,2,"no","up","Left",1,"FF","FL",2,"up",469,1,"Guest12"
5,0.680595278739929,0.440309464931488,87.0692901611328,153.556427001953,49.0514335632324,216.999,2745.011,1712.998,"Pictures_Onset",1705.011,"12","Healthy",12,20,20,2,"no","up","Left",1,"FF","FL",2,"up",469,1,"Guest12"
6,0.37696972489357,0.512787878513336,-58.1151504516602,135.190612792969,42.3675765991211,167.001,1633.997,599.002,"Pictures_Onset",593.997,"12","Healthy",12,20,20,3,"no","up","Left",0,"FL","FF",2,"up",461,1,"Guest12"
6,0.626083314418793,0.487472176551819,60.9872169494629,141.623611450195,44.7105560302734,182.003,1883.994,848.999,"Pictures_Onset",843.994,"12","Salty",12,20,20,3,"no","up","Left",0,"FL","FF",2,"up",461,1,"Guest12"
6,0.364433318376541,0.491750001907349,-64.2016677856445,140.540817260742,44.3154983520508,317.005,2132.992,1097.997,"Pictures_Onset",1092.992,"12","Healthy",12,20,20,3,"no","up","Left",0,"FL","FF",2,"up",461,1,"Guest12"
6,0.36749204993248,0.499301552772522,-62.7209548950195,138.621597290039,43.617301940918,333.005,2482.995,1448,"Pictures_Onset",1442.995,"12","Healthy",12,20,20,3,"no","up","Left",0,"FL","FF",2,"up",461,1,"Guest12"
6,0.381791651248932,0.462916672229767,-55.9612503051758,147.864593505859,46.9795837402344,115.994,2864.998,1830.003,"Pictures_Onset",1824.998,"12","Healthy",12,20,20,3,"no","up","Left",0,"FL","FF",2,"up",461,1,"Guest12"
7,0.590948700904846,0.475205153226852,44.2223091125488,144.74641418457,45.8458938598633,200.013,1406.989,315.994,"Pictures_Onset",366.989,"12","Healthy",12,20,20,4,"no","down","Right",0,"FF","FL",2,"down",493,1,"Guest12"
7,0.344866693019867,0.487566649913788,-73.4973297119141,141.616317749023,44.707332611084,150.003,1689.997,599.002,"Pictures_Onset",649.997,"12","Salty",12,20,20,4,"no","down","Right",0,"FF","FL",2,"down",493,1,"Guest12"
7,0.599769234657288,0.456307739019394,48.4279518127441,149.519989013672,47.5838470458984,200,1922.995,832,"Pictures_Onset",882.995,"12","Healthy",12,20,20,4,"no","down","Right",0,"FF","FL",2,"down",493,1,"Guest12"
7,0.448933303356171,0.473866641521454,-23.7910003662109,145.025665283203,45.9470024108887,150.003,2188.992,1097.997,"Pictures_Onset",1148.992,"12","Salty",12,20,20,4,"no","down","Right",0,"FF","FL",2,"down",493,1,"Guest12"
7,0.449393928050995,0.479242354631424,-23.4987869262695,143.720901489258,45.4724273681641,167.002,2372.992,1281.997,"Pictures_Onset",1332.992,"12","Salty",12,20,20,4,"no","down","Right",0,"FF","FL",2,"down",493,1,"Guest12"
7,0.448740750551224,0.484370350837708,-23.8548164367676,142.418518066406,45.0003623962402,133.004,2571.994,1480.999,"Pictures_Onset",1531.994,"12","Salty",12,20,20,4,"no","down","Right",0,"FF","FL",2,"down",493,1,"Guest12"
7,0.449392139911652,0.476568609476089,-23.5352935791016,144.349990844727,45.7023506164551,265.997,2738.995,1648,"Pictures_Onset",1698.995,"12","Salty",12,20,20,4,"no","down","Right",0,"FF","FL",2,"down",493,1,"Guest12"
8,0.596282064914703,0.47930771112442,46.747688293457,143.706146240234,45.468204498291,199.002,1278.003,249.997,"Pictures_Onset",238.003,"12","Salty",12,20,20,1,"no","down","Right",1,"FL","FF",2,"down",415,1,"Guest12"
8,0.381416648626328,0.464458346366882,-56.060417175293,147.414169311523,46.817081451416,115.994,1811.008,783.002,"Pictures_Onset",771.008,"12","Healthy",12,20,20,1,"no","down","Right",1,"FL","FF",2,"down",415,1,"Guest12"
8,0.379030257463455,0.476151496171951,-57.2087860107422,144.51091003418,45.7600021362305,166.004,1960.998,932.992,"Pictures_Onset",920.998,"12","Healthy",12,20,20,1,"no","down","Right",1,"FL","FF",2,"down",415,1,"Guest12"
8,0.377666711807251,0.4375,-57.8629150390625,154.283325195312,49.3179168701172,116.006,2160,1131.994,"Pictures_Onset",1120,"12","Healthy",12,20,20,1,"no","down","Right",1,"FL","FF",2,"down",415,1,"Guest12"
8,0.371708333492279,0.434041678905487,-60.7704162597656,155.13166809082,49.627498626709,115.994,2310.003,1281.997,"Pictures_Onset",1270.003,"12","Healthy",12,20,20,1,"no","down","Right",1,"FL","FF",2,"down",415,1,"Guest12"
8,0.606461524963379,0.450256407260895,51.7243576049805,151.011779785156,48.1279487609863,200,2526.003,1497.997,"Pictures_Onset",1486.003,"12","Salty",12,20,20,1,"no","down","Right",1,"FL","FF",2,"down",415,1,"Guest12"
9,0.619911074638367,0.467244476079941,58.1173324584961,146.766891479492,46.5822257995605,232.998,1643.994,616,"Pictures_Onset",603.994,"12","Healthy",12,20,20,3,"no","up","Left",1,"FF","FL",3,"up",438,1,"Guest12"
9,0.62051522731781,0.434060603380203,58.3942413330078,155.118179321289,49.6215171813965,165.99,2111.002,1083.008,"Pictures_Onset",1071.002,"12","Healthy",12,20,20,3,"no","up","Left",1,"FF","FL",3,"up",438,1,"Guest12"
9,0.379393965005875,0.448060601949692,-57.1057624816895,151.602722167969,48.3418197631836,165.99,2360,1332.006,"Pictures_Onset",1320,"12","Salty",12,20,20,3,"no","up","Left",1,"FF","FL",3,"up",438,1,"Guest12"
9,0.577976167201996,0.469761908054352,37.9921455383301,146.074752807617,46.3292846679688,216,2609.997,1582.003,"Pictures_Onset",1569.997,"12","Healthy",12,20,20,3,"no","up","Left",1,"FF","FL",3,"up",438,1,"Guest12"
9,0.575708389282227,0.483375012874603,36.9408302307129,142.633331298828,45.0779151916504,116.007,2858.995,1831.001,"Pictures_Onset",1818.995,"12","Healthy",12,20,20,3,"no","up","Left",1,"FF","FL",3,"up",438,1,"Guest12"
10,0.574666619300842,0.481900036334991,36.3843307495117,143.011001586914,45.2160034179688,149.99,1384,349.005,"Pictures_Onset",344,"12","Salty",12,20,20,4,"no","up","Left",0,"FL","FF",3,"up",470,1,"Guest12"
10,0.397291660308838,0.478916645050049,-48.4541664123535,143.787506103516,45.4962463378906,117.004,1699.994,664.999,"Pictures_Onset",659.994,"12","Healthy",12,20,20,4,"no","up","Left",0,"FL","FF",3,"up",470,1,"Guest12"
10,0.332444459199905,0.480972200632095,-79.4855575561523,143.285842895508,45.3152770996094,183.002,1882.995,848,"Pictures_Onset",842.995,"12","Healthy",12,20,20,4,"no","up","Left",0,"FL","FF",3,"up",470,1,"Guest12"
10,0.338111132383347,0.404000014066696,-76.8108444213867,162.778900146484,52.4108276367188,183.001,2099.994,1064.999,"Pictures_Onset",1059.994,"12","Healthy",12,20,20,4,"no","up","Left",0,"FL","FF",3,"up",470,1,"Guest12"
11,0.398692309856415,0.47358974814415,-47.7682075500488,145.132827758789,45.9871788024902,200,1240,217.011,"Pictures_Onset",200,"12","Salty",12,20,20,1,"no","down","Right",0,"FF","FL",3,"down",483,1,"Guest12"
11,0.635435819625854,0.464435935020447,65.4630737304688,147.487167358398,46.8433265686035,199.002,1522.995,500.006,"Pictures_Onset",482.995,"12","Healthy",12,20,20,1,"no","down","Right",0,"FF","FL",3,"down",483,1,"Guest12"
11,0.612200021743774,0.473866701126099,54.4039993286133,145.078994750977,45.9659957885742,150.003,1754.995,732.006,"Pictures_Onset",714.995,"12","Healthy",12,20,20,1,"no","down","Right",0,"FF","FL",3,"down",483,1,"Guest12"
11,0.599137246608734,0.432333379983902,48.0823516845703,155.57844543457,49.7898025512695,266.995,1954.995,932.006,"Pictures_Onset",914.995,"12","Healthy",12,20,20,1,"no","down","Right",0,"FF","FL",3,"down",483,1,"Guest12"
11,0.384294182062149,0.4455686211586,-54.6466674804688,152.222732543945,48.568042755127,267.008,2420.992,1398.003,"Pictures_Onset",1380.992,"12","Salty",12,20,20,1,"no","down","Right",0,"FF","FL",3,"down",483,1,"Guest12"
11,0.569969713687897,0.456303030252457,34.1733322143555,149.504531860352,47.5787925720215,166.003,2770.995,1748.006,"Pictures_Onset",1730.995,"12","Healthy",12,20,20,1,"no","down","Right",0,"FF","FL",3,"down",483,1,"Guest12"
12,0.373874962329865,0.469708323478699,-59.6204147338867,146.105834960938,46.3395843505859,116.992,1231.002,200.013,"Pictures_Onset",191.002,"12","Healthy",12,20,20,2,"no","down","Right",1,"FL","FF",3,"down",495,1,"Guest12"
12,0.575177788734436,0.488244414329529,36.6722221374512,141.415328979492,44.6326713562012,234.009,1446.989,416,"Pictures_Onset",406.989,"12","Salty",12,20,20,2,"no","down","Right",1,"FL","FF",3,"down",495,1,"Guest12"
12,0.599916696548462,0.470083355903625,48.5545845031738,146.040832519531,46.3179168701172,116.992,1712.998,682.009,"Pictures_Onset",672.998,"12","Salty",12,20,20,2,"no","down","Right",1,"FL","FF",3,"down",495,1,"Guest12"
12,0.349974364042282,0.498769223690033,-71.0797424316406,138.805892944336,43.6858978271484,199.002,1946.995,916.006,"Pictures_Onset",906.995,"12","Healthy",12,20,20,2,"no","down","Right",1,"FL","FF",3,"down",495,1,"Guest12"
12,0.576782584190369,0.50020295381546,37.3711624145508,138.407379150391,43.5395660400391,366.004,2229.99,1199.001,"Pictures_Onset",1189.99,"12","Salty",12,20,20,2,"no","down","Right",1,"FL","FF",3,"down",495,1,"Guest12"
12,0.57387501001358,0.51345831155777,35.9570808410645,135.060821533203,42.3220825195312,117.005,2628.992,1598.003,"Pictures_Onset",1588.992,"12","Salty",12,20,20,2,"no","down","Right",1,"FL","FF",3,"down",495,1,"Guest12"
12,0.38775759935379,0.521969735622406,-53.0563621520996,132.899688720703,41.5342407226562,166.003,2811.994,1781.005,"Pictures_Onset",1771.994,"12","Healthy",12,20,20,2,"no","down","Right",1,"FL","FF",3,"down",495,1,"Guest12"
13,0.347307711839676,0.483948707580566,-72.4510345458984,142.528457641602,45.039737701416,199.002,1656,566.003,"Pictures_Onset",616,"12","Salty",12,20,20,4,"no","up","Left",1,"FF","FL",4,"up",473,1,"Guest12"
13,0.345333337783813,0.439138889312744,-73.3044509887695,153.843612670898,49.1569404602051,183.002,1888.998,799.001,"Pictures_Onset",848.998,"12","Salty",12,20,20,4,"no","up","Left",1,"FF","FL",4,"up",473,1,"Guest12"
13,0.614583313465118,0.465055555105209,55.4508323669434,147.303329467773,46.7747192382812,183.001,2337.997,1248,"Pictures_Onset",1297.997,"12","Healthy",12,20,20,4,"no","up","Left",1,"FF","FL",4,"up",473,1,"Guest12"
13,0.572619080543518,0.473809510469437,35.4319038391113,145.113571166992,45.9800071716309,216.998,2571.008,1481.011,"Pictures_Onset",1531.008,"12","Healthy",12,20,20,4,"no","up","Left",1,"FF","FL",4,"up",473,1,"Guest12"
13,0.594999969005585,0.459777772426605,46.2088813781738,148.663696289062,47.2729644775391,134.003,2854.003,1764.006,"Pictures_Onset",1814.003,"12","Healthy",12,20,20,4,"no","up","Left",1,"FF","FL",4,"up",473,1,"Guest12"
14,0.597472250461578,0.485805541276932,47.3333396911621,142.031372070312,44.85888671875,182.988,1287.002,151.002,"Pictures_Onset",247.002,"12","Salty",12,20,20,1,"no","up","Left",0,"FL","FF",4,"up",419,1,"Guest12"
15,0.655711710453033,0.475072085857391,75.1727828979492,144.767105102539,45.8536911010742,599.002,1632.998,599.001,"Pictures_Onset",592.998,"12","Healthy",12,20,20,2,"no","down","Right",0,"FF","FL",4,"down",394,1,"Guest12"
15,0.412785768508911,0.478404760360718,-41.0121421813965,143.921188354492,45.5464248657227,216,2615.002,1581.005,"Pictures_Onset",1575.002,"12","Salty",12,20,20,2,"no","down","Right",0,"FF","FL",4,"down",394,1,"Guest12"
16,0.403181821107864,0.469303011894226,-45.6821174621582,146.219100952148,46.3809051513672,165.99,1239.002,216.013,"Pictures_Onset",199.002,"12","Healthy",12,20,20,3,"no","down","Right",1,"FL","FF",4,"down",459,1,"Guest12"
16,0.613859713077545,0.475614041090012,55.1549072265625,144.621948242188,45.8008804321289,299.994,1488,465.011,"Pictures_Onset",448,"12","Salty",12,20,20,3,"no","down","Right",1,"FL","FF",4,"down",459,1,"Guest12"
16,0.622541666030884,0.456499993801117,59.3620796203613,149.428756713867,47.5495834350586,117.004,2203.994,1181.005,"Pictures_Onset",1163.994,"12","Salty",12,20,20,3,"no","down","Right",1,"FL","FF",4,"down",459,1,"Guest12"
18,0.708166718482971,0.451976239681244,100.312866210938,150.598556518555,47.9759521484375,216.998,1832,798.003,"Pictures_Onset",792,"12","Salty",12,20,20,2,"no","up","Left",0,"FL","FF",5,"up",396,1,"Guest12"
18,0.679025650024414,0.430999964475632,86.3487091064453,155.901275634766,49.9079513549805,200.999,2080.998,1047.001,"Pictures_Onset",1040.998,"12","Salty",12,20,20,2,"no","up","Left",0,"FL","FF",5,"up",396,1,"Guest12"
18,0.397000014781952,0.472499996423721,-48.6176681518555,145.377655029297,46.076000213623,149.005,2364.992,1330.995,"Pictures_Onset",1324.992,"12","Healthy",12,20,20,2,"no","up","Left",0,"FL","FF",5,"up",396,1,"Guest12"
18,0.441259264945984,0.45651850104332,-27.3962955474854,149.418518066406,47.5477828979492,132.992,2648,1614.003,"Pictures_Onset",1608,"12","Healthy",12,20,20,2,"no","up","Left",0,"FL","FF",5,"up",396,1,"Guest12"
18,0.600666701793671,0.478999972343445,48.8988876342773,143.802215576172,45.5022239685059,133.005,2846.989,1812.992,"Pictures_Onset",1806.989,"12","Salty",12,20,20,2,"no","up","Left",0,"FL","FF",5,"up",396,1,"Guest12"
19,0.413555532693863,0.46514818072319,-40.7022171020508,147.294815063477,46.7729644775391,133.004,1703.002,665.997,"Pictures_Onset",663.002,"12","Salty",12,20,20,3,"no","down","Right",0,"FF","FL",5,"down",1133,1,"Guest12"
19,0.579788863658905,0.472022145986557,38.8643341064453,145.573913574219,46.1468925476074,482.009,1903.002,865.997,"Pictures_Onset",863.002,"12","Healthy",12,20,20,3,"no","down","Right",0,"FF","FL",5,"down",1133,1,"Guest12"
19,0.414907455444336,0.48309263586998,-40.0688896179199,142.748138427734,45.119068145752,282.995,2501.005,1464,"Pictures_Onset",1461.005,"12","Salty",12,20,20,3,"no","down","Right",0,"FF","FL",5,"down",1133,1,"Guest12"
19,0.414393901824951,0.483272731304169,-40.2893943786621,142.700912475586,45.1006011962891,165.99,2818.01,1781.005,"Pictures_Onset",1778.01,"12","Salty",12,20,20,3,"no","down","Right",0,"FF","FL",5,"down",1133,1,"Guest12"
20,0.573687434196472,0.470812499523163,35.9672966003418,145.813354492188,46.2350006103516,249.996,1279.002,183.002,"Pictures_Onset",239.002,"12","Salty",12,20,20,4,"no","down","Right",1,"FL","FF",5,"down",450,1,"Guest12"
20,0.341481506824493,0.483074069023132,-75.1377792358398,142.74739074707,45.120002746582,132.992,1612.006,516.006,"Pictures_Onset",572.006,"12","Healthy",12,20,20,4,"no","down","Right",1,"FL","FF",5,"down",450,1,"Guest12"
20,0.573575735092163,0.499984920024872,35.9292411804199,138.463317871094,43.5590896606445,350.989,1828.006,732.006,"Pictures_Onset",788.006,"12","Salty",12,20,20,4,"no","down","Right",1,"FL","FF",5,"down",450,1,"Guest12"
20,0.605955481529236,0.455066680908203,51.401554107666,149.841110229492,47.7013397216797,232.998,2261.005,1165.005,"Pictures_Onset",1221.005,"12","Salty",12,20,20,4,"no","down","Right",1,"FL","FF",5,"down",450,1,"Guest12"
20,0.328583329916,0.477249979972839,-81.4454193115234,144.216674804688,45.6533355712891,116.992,2660.006,1564.006,"Pictures_Onset",1620.006,"12","Healthy",12,20,20,4,"no","down","Right",1,"FL","FF",5,"down",450,1,"Guest12"
21,0.339980393648148,0.470823466777802,-75.8752975463867,145.839813232422,46.244701385498,265.997,1564.006,533.004,"Pictures_Onset",524.006,"12","Salty",12,20,20,2,"no","down","Left",1,"FF","FL",6,"down",446,1,"Guest12"
21,0.593666732311249,0.465083330869675,45.4047203063965,147.253616333008,46.7594451904297,183.002,1980.006,949.004,"Pictures_Onset",940.006,"12","Healthy",12,20,20,2,"no","down","Left",1,"FF","FL",6,"down",446,1,"Guest12"
21,0.342666685581207,0.456296294927597,-74.6492614746094,149.491485595703,47.5733337402344,132.992,2313.011,1282.009,"Pictures_Onset",1273.011,"12","Salty",12,20,20,2,"no","down","Left",1,"FF","FL",6,"down",446,1,"Guest12"
21,0.604754328727722,0.446877241134644,50.7561416625977,151.886306762695,48.4443855285645,298.995,2530.01,1499.008,"Pictures_Onset",1490.01,"12","Healthy",12,20,20,2,"no","down","Left",1,"FF","FL",6,"down",446,1,"Guest12"
22,0.392611145973206,0.474037021398544,-50.6942596435547,145.022964477539,45.9462966918945,283.008,1235.994,200,"Pictures_Onset",195.994,"12","Healthy",12,20,20,3,"no","down","Left",0,"FL","FF",6,"up",412,0,"Guest12"
22,0.632757604122162,0.484787911176682,64.1333389282227,142.325759887695,44.9642448425293,165.991,1584.998,549.004,"Pictures_Onset",544.998,"12","Salty",12,20,20,3,"no","down","Left",0,"FL","FF",6,"up",412,0,"Guest12"
22,0.628361165523529,0.476166695356369,62.0688934326172,144.4677734375,45.7441673278809,183.002,1784.998,749.004,"Pictures_Onset",744.998,"12","Salty",12,20,20,3,"no","down","Left",0,"FL","FF",6,"up",412,0,"Guest12"
22,0.392142862081528,0.495499938726425,-50.937141418457,139.58642578125,43.9685707092285,216,2067.994,1032,"Pictures_Onset",1027.994,"12","Healthy",12,20,20,3,"no","down","Left",0,"FL","FF",6,"up",412,0,"Guest12"
22,0.572733342647552,0.459166675806046,35.5053329467773,148.797668457031,47.3206672668457,149.99,2351.002,1315.008,"Pictures_Onset",1311.002,"12","Salty",12,20,20,3,"no","down","Left",0,"FL","FF",6,"up",412,0,"Guest12"
22,0.571274518966675,0.47105884552002,34.8094139099121,145.760589599609,46.2143135070801,267.008,2532.992,1496.998,"Pictures_Onset",1492.992,"12","Salty",12,20,20,3,"no","down","Left",0,"FL","FF",6,"up",412,0,"Guest12"
23,0.591194450855255,0.450638860464096,44.2980537414551,150.942779541016,48.0991706848145,184,1248,216,"Pictures_Onset",208,"12","Healthy",12,20,20,4,"no","up","Right",0,"FF","FL",6,"up",292,1,"Guest12"
23,0.34604349732399,0.467536270618439,-72.9971008300781,146.675491333008,46.5486946105957,365.005,1497.997,465.997,"Pictures_Onset",457.997,"12","Salty",12,20,20,4,"no","up","Right",0,"FF","FL",6,"up",292,1,"Guest12"
23,0.568185150623322,0.452962934970856,33.2592544555664,150.324447631836,47.8759307861328,133.004,1963.994,931.994,"Pictures_Onset",923.994,"12","Healthy",12,20,20,4,"no","up","Right",0,"FF","FL",6,"up",292,1,"Guest12"
23,0.56830769777298,0.460730820894241,33.3867950439453,148.399261474609,47.1766586303711,416,2129.997,1097.997,"Pictures_Onset",1089.997,"12","Healthy",12,20,20,4,"no","up","Right",0,"FF","FL",6,"up",292,1,"Guest12"
23,0.564786732196808,0.47146663069725,31.7158641815186,145.685485839844,46.1876029968262,399.001,2579.994,1547.994,"Pictures_Onset",1539.994,"12","Healthy",12,20,20,4,"no","up","Right",0,"FF","FL",6,"up",292,1,"Guest12"
24,0.596944510936737,0.474074095487595,47.0809211730957,145.014999389648,45.9449996948242,282.995,1247.002,216.013,"Pictures_Onset",207.002,"12","Salty",12,20,20,1,"no","up","Right",1,"FL","FF",6,"down",381,0,"Guest12"
24,0.37796488404274,0.458421051502228,-57.7359619140625,148.970504760742,47.3829803466797,300.006,1612.992,582.003,"Pictures_Onset",572.992,"12","Healthy",12,20,20,1,"no","up","Right",1,"FL","FF",6,"down",381,0,"Guest12"
24,0.641393899917603,0.455727279186249,68.3733444213867,149.621520996094,47.6221199035645,167.001,1995.994,965.005,"Pictures_Onset",955.994,"12","Salty",12,20,20,1,"no","up","Right",1,"FL","FF",6,"down",381,0,"Guest12"
24,0.638999938964844,0.458916693925858,67.2381362915039,148.826034545898,47.3314590454102,249.997,2194.995,1164.006,"Pictures_Onset",1154.995,"12","Salty",12,20,20,1,"no","up","Right",1,"FL","FF",6,"down",381,0,"Guest12"
24,0.397666662931442,0.45459258556366,-48.271110534668,149.885559082031,47.7162933349609,133.99,2528,1497.011,"Pictures_Onset",1488,"12","Healthy",12,20,20,1,"no","up","Right",1,"FL","FF",6,"down",381,0,"Guest12"
25,0.402250021696091,0.453194409608841,-46.0744476318359,150.332504272461,47.8777809143066,183.002,1304.998,282.995,"Pictures_Onset",264.998,"12","Salty",12,20,20,3,"no","down","Left",1,"FF","FL",7,"up",465,0,"Guest12"
25,0.618105232715607,0.450315773487091,57.1540412902832,151.011917114258,48.1270179748535,299.008,1554.995,532.992,"Pictures_Onset",514.995,"12","Healthy",12,20,20,3,"no","down","Left",1,"FF","FL",7,"up",465,0,"Guest12"
25,0.647875010967255,0.470583349466324,71.4174957275391,145.931243896484,46.2766647338867,115.993,1887.002,864.999,"Pictures_Onset",847.002,"12","Healthy",12,20,20,3,"no","down","Left",1,"FF","FL",7,"up",465,0,"Guest12"
25,0.395999997854233,0.456137239933014,-49.0666694641113,149.570190429688,47.6019592285156,265.996,2087.002,1064.999,"Pictures_Onset",1047.002,"12","Salty",12,20,20,3,"no","down","Left",1,"FF","FL",7,"up",465,0,"Guest12"
25,0.590789496898651,0.458403497934341,44.0857925415039,148.983688354492,47.388240814209,298.996,2636.006,1614.003,"Pictures_Onset",1596.006,"12","Healthy",12,20,20,3,"no","down","Left",1,"FF","FL",7,"up",465,0,"Guest12"
26,0.596928596496582,0.474642902612686,47.0861854553223,144.859283447266,45.886905670166,216,1431.002,333.005,"Pictures_Onset",391.002,"12","Salty",12,20,20,4,"no","down","Left",0,"FL","FF",7,"down",506,1,"Guest12"
26,0.604454517364502,0.458999991416931,50.6175765991211,148.84211730957,47.3381805419922,166.003,1680,582.003,"Pictures_Onset",640,"12","Salty",12,20,20,4,"no","down","Left",0,"FL","FF",7,"down",506,1,"Guest12"
26,0.561088919639587,0.473866671323776,29.9842224121094,145.040908813477,45.9539985656738,232,1880,782.003,"Pictures_Onset",840,"12","Salty",12,20,20,4,"no","down","Left",0,"FL","FF",7,"down",506,1,"Guest12"
26,0.329047620296478,0.468920648097992,-81.1025314331055,146.339508056641,46.4266662597656,333.004,2195.994,1097.997,"Pictures_Onset",1155.994,"12","Healthy",12,20,20,4,"no","down","Left",0,"FL","FF",7,"down",506,1,"Guest12"
26,0.344750016927719,0.436166644096375,-73.615837097168,154.563552856445,49.4187507629395,249.997,2578.995,1480.998,"Pictures_Onset",1538.995,"12","Healthy",12,20,20,4,"no","down","Left",0,"FL","FF",7,"down",506,1,"Guest12"
27,0.611999988555908,0.458388924598694,54.3016662597656,148.982498168945,47.3872222900391,183.002,1252.006,216,"Pictures_Onset",212.006,"12","Healthy",12,20,20,1,"no","up","Right",0,"FF","FL",7,"up",476,1,"Guest12"
27,0.37176924943924,0.471820473670959,-60.6830711364746,145.633331298828,46.1699981689453,199.002,1635.008,599.002,"Pictures_Onset",595.008,"12","Salty",12,20,20,1,"no","up","Right",0,"FF","FL",7,"up",476,1,"Guest12"
27,0.630857110023499,0.449761897325516,63.2838096618652,151.138809204102,48.1723823547363,216,1918.003,881.997,"Pictures_Onset",878.003,"12","Healthy",12,20,20,1,"no","up","Right",0,"FF","FL",7,"up",476,1,"Guest12"
27,0.631969630718231,0.458515167236328,63.8006019592285,148.946350097656,47.3757591247559,165.99,2168.013,1132.007,"Pictures_Onset",1128.013,"12","Healthy",12,20,20,1,"no","up","Right",0,"FF","FL",7,"up",476,1,"Guest12"
28,0.448411762714386,0.467843145132065,-24.0576477050781,146.602569580078,46.5217704772949,267.008,1257.997,166.003,"Pictures_Onset",217.997,"12","Healthy",12,20,20,2,"no","up","Right",1,"FL","FF",7,"up",498,1,"Guest12"
28,0.667130410671234,0.451666712760925,80.6931838989258,150.671005249023,48.0024642944336,366.003,1707.994,616,"Pictures_Onset",667.994,"12","Salty",12,20,20,2,"no","up","Right",1,"FL","FF",7,"up",498,1,"Guest12"
28,0.419799983501434,0.478711068630219,-37.7011070251465,143.843994140625,45.5173377990723,232.998,2207.002,1115.008,"Pictures_Onset",1167.002,"12","Healthy",12,20,20,2,"no","up","Right",1,"FL","FF",7,"up",498,1,"Guest12"
28,0.665153801441193,0.467769265174866,79.6620559692383,146.600769042969,46.5212821960449,200,2522.995,1431.001,"Pictures_Onset",1482.995,"12","Salty",12,20,20,2,"no","up","Right",1,"FL","FF",7,"up",498,1,"Guest12"
28,0.426878750324249,0.479545474052429,-34.2939376831055,143.625137329102,45.4384803771973,165.991,2806.003,1714.009,"Pictures_Onset",1766.003,"12","Healthy",12,20,20,2,"no","up","Right",1,"FL","FF",7,"up",498,1,"Guest12"
29,0.578454554080963,0.45887878537178,38.2363624572754,148.838165283203,47.3354530334473,166.004,1245.99,216.998,"Pictures_Onset",205.99,"12","Healthy",12,20,20,4,"no","down","Left",1,"FF","FL",8,"down",452,1,"Guest12"
29,0.340974360704422,0.482564121484756,-75.4317932128906,142.866912841797,45.160514831543,200,1544.998,516.006,"Pictures_Onset",504.998,"12","Salty",12,20,20,4,"no","down","Left",1,"FF","FL",8,"down",452,1,"Guest12"
29,0.559238076210022,0.441952407360077,29.0423793792725,153.104049682617,48.8880920410156,216.998,1827.994,799.002,"Pictures_Onset",787.994,"12","Healthy",12,20,20,4,"no","down","Left",1,"FF","FL",8,"down",452,1,"Guest12"
29,0.556402266025543,0.458413809537888,27.672872543335,148.975387573242,47.3850593566895,466.01,2077.99,1048.998,"Pictures_Onset",1037.99,"12","Healthy",12,20,20,4,"no","down","Left",1,"FF","FL",8,"down",452,1,"Guest12"
29,0.552902817726135,0.473569393157959,25.9813861846924,145.143173217773,45.9906959533691,383.002,2576.998,1548.006,"Pictures_Onset",1536.998,"12","Healthy",12,20,20,4,"no","down","Left",1,"FF","FL",8,"down",452,1,"Guest12"
30,0.578238070011139,0.462785661220551,38.0780944824219,147.874282836914,46.9857177734375,216.999,1244.006,83.008,"Pictures_Onset",204.006,"12","Salty",12,20,20,1,"no","down","Left",0,"FL","FF",8,"down",458,1,"Guest12"
30,0.617099940776825,0.463733375072479,56.7163314819336,147.652313232422,46.9046630859375,149.004,1511.002,350.004,"Pictures_Onset",471.002,"12","Salty",12,20,20,1,"no","down","Left",0,"FL","FF",8,"down",458,1,"Guest12"
30,0.584166765213013,0.474062502384186,40.9737510681152,145.053756713867,45.9585418701172,250.995,1709.005,548.007,"Pictures_Onset",669.005,"12","Salty",12,20,20,1,"no","down","Left",0,"FL","FF",8,"down",458,1,"Guest12"
30,0.379622161388397,0.45517772436142,-56.9060020446777,149.789794921875,47.6808929443359,232.999,2076.006,915.008,"Pictures_Onset",1036.006,"12","Healthy",12,20,20,1,"no","down","Left",0,"FL","FF",8,"down",458,1,"Guest12"
30,0.357299983501434,0.45509997010231,-67.6283340454102,149.836318969727,47.699333190918,150.003,2342.003,1181.005,"Pictures_Onset",1302.003,"12","Healthy",12,20,20,1,"no","down","Left",0,"FL","FF",8,"down",458,1,"Guest12"
30,0.602805554866791,0.45038890838623,49.8786125183105,151.005294799805,48.1241645812988,183.001,2575.002,1414.004,"Pictures_Onset",1535.002,"12","Salty",12,20,20,1,"no","down","Left",0,"FL","FF",8,"down",458,1,"Guest12"
30,0.420148134231567,0.456851840019226,-37.5637054443359,149.393707275391,47.5355529785156,132.006,2841.997,1680.999,"Pictures_Onset",1801.997,"12","Healthy",12,20,20,1,"no","down","Left",0,"FL","FF",8,"down",458,1,"Guest12"
31,0.563499987125397,0.492000013589859,31.0254173278809,140.499176025391,44.3012504577637,116.992,1624,599.002,"Pictures_Onset",584,"12","Healthy",12,20,20,2,"no","up","Right",0,"FF","FL",8,"up",451,1,"Guest12"
31,0.565090954303741,0.494333356618881,31.8212108612061,139.880599975586,44.0763626098633,167.002,1773.99,748.992,"Pictures_Onset",733.99,"12","Healthy",12,20,20,2,"no","up","Right",0,"FF","FL",8,"up",451,1,"Guest12"
31,0.332880973815918,0.499285668134689,-79.2599945068359,138.638092041016,43.6223831176758,217.011,2022.989,997.991,"Pictures_Onset",982.989,"12","Salty",12,20,20,2,"no","up","Right",0,"FF","FL",8,"up",451,1,"Guest12"
31,0.360666662454605,0.466851860284805,-66.0433349609375,146.868515014648,46.6199989318848,134.003,2305.997,1280.999,"Pictures_Onset",1265.997,"12","Salty",12,20,20,2,"no","up","Right",0,"FF","FL",8,"up",451,1,"Guest12"
31,0.592777788639069,0.480722278356552,45.0829620361328,143.339050292969,45.3340759277344,284.006,2604.992,1579.994,"Pictures_Onset",1564.992,"12","Healthy",12,20,20,2,"no","up","Right",0,"FF","FL",8,"up",451,1,"Guest12"
32,0.39272552728653,0.46625491976738,-50.7121505737305,146.993759155273,46.6649055480957,265.997,1237.005,133.005,"Pictures_Onset",197.005,"12","Healthy",12,20,20,3,"no","up","Right",1,"FL","FF",8,"up",367,1,"Guest12"
32,0.624444425106049,0.457592606544495,60.2333374023438,149.165542602539,47.4551849365234,133.005,1586.995,482.995,"Pictures_Onset",546.995,"12","Salty",12,20,20,3,"no","up","Right",1,"FL","FF",8,"up",367,1,"Guest12"
32,0.59588885307312,0.462972164154053,46.5361061096191,147.84831237793,46.9758338928223,184,1768.998,664.998,"Pictures_Onset",728.998,"12","Salty",12,20,20,3,"no","up","Right",1,"FL","FF",8,"up",367,1,"Guest12"
32,0.361000001430511,0.44670370221138,-65.8492584228516,151.937042236328,48.4625968933105,133.005,2185.997,1081.997,"Pictures_Onset",1145.997,"12","Healthy",12,20,20,3,"no","up","Right",1,"FL","FF",8,"up",367,1,"Guest12"
32,0.358222216367722,0.444925934076309,-67.1174011230469,152.38037109375,48.624813079834,134.003,2351.002,1247.002,"Pictures_Onset",1311.002,"12","Healthy",12,20,20,3,"no","up","Right",1,"FL","FF",8,"up",367,1,"Guest12"
32,0.391363620758057,0.449242413043976,-51.3057594299316,151.272720336914,48.2224235534668,167.002,2518.003,1414.003,"Pictures_Onset",1478.003,"12","Healthy",12,20,20,3,"no","up","Right",1,"FL","FF",8,"up",367,1,"Guest12"
33,0.591861069202423,0.470166653394699,44.6274909973145,146.035552978516,46.3152770996094,183.002,1416,383.002,"Pictures_Onset",376,"12","Healthy",12,20,20,1,"no","down","Left",1,"FF","FL",9,"down",469,1,"Guest12"
34,0.569208323955536,0.464916676282883,33.8241653442383,147.37873840332,46.8041648864746,117.005,1418.995,399.001,"Pictures_Onset",378.995,"12","Salty",12,20,20,2,"no","down","Left",0,"FL","FF",9,"down",479,1,"Guest12"
34,0.656518518924713,0.453851848840714,75.5059356689453,150.097793579102,47.7948188781738,133.005,1585.997,566.003,"Pictures_Onset",545.997,"12","Salty",12,20,20,2,"no","down","Left",0,"FL","FF",9,"down",479,1,"Guest12"
34,0.439999997615814,0.476999998092651,-28.1191635131836,144.312911987305,45.6891632080078,117.005,1801.997,782.003,"Pictures_Onset",761.997,"12","Healthy",12,20,20,2,"no","down","Left",0,"FL","FF",9,"down",479,1,"Guest12"
34,0.648809552192688,0.459214299917221,71.9419021606445,148.770721435547,47.3107109069824,216.999,1984.998,965.004,"Pictures_Onset",944.998,"12","Salty",12,20,20,2,"no","down","Left",0,"FL","FF",9,"down",479,1,"Guest12"
34,0.551907479763031,0.471907407045364,25.4903678894043,145.570373535156,46.1462936401367,283.008,2267.994,1248,"Pictures_Onset",1227.994,"12","Salty",12,20,20,2,"no","down","Left",0,"FL","FF",9,"down",479,1,"Guest12"
34,0.549607872962952,0.484078407287598,24.4009799957275,142.492752075195,45.0252990722656,265.997,2584,1564.006,"Pictures_Onset",1544,"12","Salty",12,20,20,2,"no","down","Left",0,"FL","FF",9,"down",479,1,"Guest12"
35,0.61983335018158,0.466633379459381,57.9848327636719,146.912170410156,46.6358375549316,315.994,1259.008,232.998,"Pictures_Onset",219.008,"12","Healthy",12,20,20,3,"no","up","Right",0,"FF","FL",9,"up",532,1,"Guest12"
35,0.652925908565521,0.46640744805336,73.8414840698242,146.96369934082,46.6533317565918,133.99,1608.013,582.003,"Pictures_Onset",568.013,"12","Healthy",12,20,20,3,"no","up","Right",0,"FF","FL",9,"up",532,1,"Guest12"
35,0.373092651367188,0.472018510103226,-60.0237007141113,145.543884277344,46.1366653442383,282.995,1841.011,815.001,"Pictures_Onset",801.011,"12","Salty",12,20,20,3,"no","up","Right",0,"FF","FL",9,"up",532,1,"Guest12"
35,0.390080839395523,0.432383835315704,-51.8993034362793,155.549896240234,49.778694152832,533.004,2191.002,1164.992,"Pictures_Onset",1151.002,"12","Salty",12,20,20,3,"no","up","Right",0,"FF","FL",9,"up",532,1,"Guest12"
35,0.585743606090546,0.471589714288712,41.6307716369629,145.657440185547,46.1779441833496,200,2790.003,1763.993,"Pictures_Onset",1750.003,"12","Healthy",12,20,20,3,"no","up","Right",0,"FF","FL",9,"up",532,1,"Guest12"
36,0.346733331680298,0.468933343887329,-72.6483383178711,146.296997070312,46.411003112793,150.003,1236.992,148.992,"Pictures_Onset",196.992,"12","Healthy",12,20,20,4,"no","up","Right",1,"FL","FF",9,"up",443,1,"Guest12"
36,0.589291572570801,0.46875,43.4425010681152,146.387496948242,46.4437484741211,116.007,1453.99,365.99,"Pictures_Onset",413.99,"12","Salty",12,20,20,4,"no","up","Right",1,"FL","FF",9,"up",443,1,"Guest12"
36,0.592277824878693,0.479111105203629,44.7908325195312,143.73860168457,45.4783325195312,183.001,1603.994,515.994,"Pictures_Onset",563.994,"12","Salty",12,20,20,4,"no","up","Right",1,"FL","FF",9,"up",443,1,"Guest12"
36,0.354249984025955,0.47708335518837,-69.0619430541992,144.255844116211,45.6683311462402,183.002,1869.99,781.99,"Pictures_Onset",829.99,"12","Healthy",12,20,20,4,"no","up","Right",1,"FL","FF",9,"up",443,1,"Guest12"
36,0.615638911724091,0.479777783155441,56.0416679382324,143.5947265625,45.4277839660645,184,2119.002,1031.002,"Pictures_Onset",1079.002,"12","Salty",12,20,20,4,"no","up","Right",1,"FL","FF",9,"up",443,1,"Guest12"
36,0.391074061393738,0.470925956964493,-51.4492607116699,145.792587280273,46.2270355224609,133.005,2401.997,1313.997,"Pictures_Onset",1361.997,"12","Healthy",12,20,20,4,"no","up","Right",1,"FL","FF",9,"up",443,1,"Guest12"
36,0.586841285228729,0.48198413848877,42.2347602844238,143.013168334961,45.2150802612305,333.004,2651.994,1563.994,"Pictures_Onset",1611.994,"12","Salty",12,20,20,4,"no","up","Right",1,"FL","FF",9,"up",443,1,"Guest12"
37,0.5963334441185,0.461030274629593,46.8442420959473,148.299392700195,47.1387901306152,167.001,1542.989,515.994,"Pictures_Onset",502.989,"12","Healthy",12,20,20,2,"no","down","Left",1,"FF","FL",10,"down",475,1,"Guest12"
37,0.651458323001862,0.457208335399628,73.1508331298828,149.289169311523,47.5,116.992,1776,749.005,"Pictures_Onset",736,"12","Healthy",12,20,20,2,"no","down","Left",1,"FF","FL",10,"down",475,1,"Guest12"
37,0.42269229888916,0.485512793064117,-36.3415336608887,142.131011962891,44.8941040039062,201.011,1974.989,947.994,"Pictures_Onset",934.989,"12","Salty",12,20,20,2,"no","down","Left",1,"FF","FL",10,"down",475,1,"Guest12"
37,0.684128224849701,0.467897415161133,88.8220520019531,146.574111938477,46.5107688903809,199.002,2258.995,1232,"Pictures_Onset",1218.995,"12","Healthy",12,20,20,2,"no","down","Left",1,"FF","FL",10,"down",475,1,"Guest12"
37,0.41049998998642,0.464229136705399,-42.1547889709473,147.490432739258,46.8456192016602,249.997,2540.992,1513.997,"Pictures_Onset",1500.992,"12","Salty",12,20,20,2,"no","down","Left",1,"FF","FL",10,"down",475,1,"Guest12"
38,0.622755587100983,0.475022226572037,59.3955535888672,144.777114868164,45.8571128845215,232.999,1478.003,466.009,"Pictures_Onset",438.003,"12","Salty",12,20,20,3,"no","down","Left",0,"FL","FF",10,"down",449,1,"Guest12"
39,0.584526360034943,0.469105273485184,41.0907020568848,146.257537841797,46.3971939086914,299.008,1249.997,216.999,"Pictures_Onset",209.997,"12","Healthy",12,20,20,4,"no","up","Right",0,"FF","FL",10,"up",393,1,"Guest12"
39,0.355727225542068,0.47712117433548,-68.3175811767578,144.227890014648,45.6578750610352,166.003,1616,583.002,"Pictures_Onset",576,"12","Salty",12,20,20,4,"no","up","Right",0,"FF","FL",10,"up",393,1,"Guest12"
39,0.34438094496727,0.415976196527481,-73.8045272827148,159.715957641602,51.2954750061035,216.998,1832,799.002,"Pictures_Onset",792,"12","Salty",12,20,20,4,"no","up","Right",0,"FF","FL",10,"up",393,1,"Guest12"
40,0.62328577041626,0.464404731988907,59.6500015258789,147.475479125977,46.840950012207,216,1633.997,598.989,"Pictures_Onset",593.997,"12","Salty",12,20,20,1,"no","up","Right",1,"FL","FF",10,"up",383,1,"Guest12"
40,0.616541683673859,0.412833333015442,56.4012489318848,160.527923583984,51.5895843505859,115.994,1884.006,848.998,"Pictures_Onset",844.006,"12","Salty",12,20,20,1,"no","up","Right",1,"FL","FF",10,"up",383,1,"Guest12"
40,0.387694448232651,0.457999974489212,-53.0250053405762,149.105270385742,47.4330596923828,183.002,2082.995,1047.987,"Pictures_Onset",1042.995,"12","Healthy",12,20,20,1,"no","up","Right",1,"FL","FF",10,"up",383,1,"Guest12"
40,0.384705811738968,0.443980395793915,-54.4731330871582,152.622543334961,48.7127418518066,265.997,2333.005,1297.997,"Pictures_Onset",1293.005,"12","Healthy",12,20,20,1,"no","up","Right",1,"FL","FF",10,"up",383,1,"Guest12"
40,0.570296347141266,0.446666657924652,34.3218536376953,151.915924072266,48.4551849365234,132.992,2716.006,1680.998,"Pictures_Onset",1676.006,"12","Salty",12,20,20,1,"no","up","Right",1,"FL","FF",10,"up",383,1,"Guest12"
41,0.399785697460175,0.484095305204391,-47.218807220459,142.490005493164,45.0254745483398,216.999,1238.003,216,"Pictures_Onset",198.003,"12","Sugary",12,20,20,3,"no","up","Left",1,"FS","FL",11,"up",409,1,"Guest12"
41,0.635615408420563,0.467102587223053,65.6028213500977,146.770263671875,46.5835914611816,201.011,1636.992,614.989,"Pictures_Onset",596.992,"12","Healthy",12,20,20,3,"no","up","Left",1,"FS","FL",11,"up",409,1,"Guest12"
41,0.565435945987701,0.470307677984238,31.9064102172852,145.962066650391,46.2912788391113,199.001,2785.997,1763.994,"Pictures_Onset",1745.997,"12","Healthy",12,20,20,3,"no","up","Left",1,"FS","FL",11,"up",409,1,"Guest12"
42,0.385976254940033,0.514261901378632,-53.8719062805176,134.844757080078,42.2416687011719,216.013,1271.987,249.997,"Pictures_Onset",231.987,"12","Healthy",12,20,20,4,"no","up","Left",0,"FL","FS",11,"up",1204,1,"Guest12"
42,0.624484837055206,0.514363586902618,60.2851524353027,134.820297241211,42.2312126159668,167.002,1554.995,533.005,"Pictures_Onset",514.995,"12","Sugary",12,20,20,4,"no","up","Left",0,"FL","FS",11,"up",1204,1,"Guest12"
42,0.429787814617157,0.526727318763733,-32.8808097839355,131.680999755859,41.0911178588867,532.006,1854.989,832.999,"Pictures_Onset",814.989,"12","Healthy",12,20,20,4,"no","up","Left",0,"FL","FS",11,"up",1204,1,"Guest12"
43,0.386547654867172,0.494738101959229,-53.6223754882812,139.762619018555,44.0319023132324,216.998,1384,216,"Pictures_Onset",344,"12","Sugary",12,20,20,1,"no","down","Right",0,"FS","FL",11,"down",396,1,"Guest12"
43,0.64759773015976,0.45771262049675,71.299430847168,149.141479492188,47.4463233947754,467.008,1932.992,764.992,"Pictures_Onset",892.992,"12","Healthy",12,20,20,1,"no","down","Right",0,"FS","FL",11,"down",396,1,"Guest12"
44,0.384846150875092,0.466487199068069,-54.4187202453613,146.915130615234,46.6358985900879,200.013,1100.992,0,"Pictures_Onset",60.992,"12","Healthy",12,20,20,2,"no","down","Right",1,"FL","FS",11,"down",465,1,"Guest12"
44,0.573909044265747,0.484212130308151,36.0442428588867,142.459686279297,45.0142402648926,167.001,1367.002,266.01,"Pictures_Onset",327.002,"12","Sugary",12,20,20,2,"no","down","Right",1,"FL","FS",11,"down",465,1,"Guest12"
44,0.573759257793427,0.4846111536026,35.9961090087891,142.325912475586,44.9655532836914,282.995,1567.002,466.01,"Pictures_Onset",527.002,"12","Sugary",12,20,20,2,"no","down","Right",1,"FL","FS",11,"down",465,1,"Guest12"
44,0.573380887508392,0.476619035005569,35.7742881774902,144.340469360352,45.7004737854004,100.007,1882.995,782.003,"Pictures_Onset",842.995,"12","Sugary",12,20,20,2,"no","down","Right",1,"FL","FS",11,"down",465,1,"Guest12"
44,0.378199994564056,0.510166585445404,-57.5996704101562,135.897857666016,42.6253395080566,316.006,2065.997,965.005,"Pictures_Onset",1025.997,"12","Healthy",12,20,20,2,"no","down","Right",1,"FL","FS",11,"down",465,1,"Guest12"
44,0.378888845443726,0.53466671705246,-57.2524909973145,129.724166870117,40.3777809143066,183.001,2415.002,1314.01,"Pictures_Onset",1375.002,"12","Healthy",12,20,20,2,"no","down","Right",1,"FL","FS",11,"down",465,1,"Guest12"
44,0.589333295822144,0.513999998569489,43.4825897216797,134.962966918945,42.2859268188477,132.992,2782.003,1681.011,"Pictures_Onset",1742.003,"12","Sugary",12,20,20,2,"no","down","Right",1,"FL","FS",11,"down",465,1,"Guest12"
45,0.553166687488556,0.473800003528595,26.1059989929199,145.065338134766,45.9636611938477,150.003,1467.994,432.999,"Pictures_Onset",427.994,"12","Healthy",12,20,20,4,"no","up","Left",1,"FS","FL",12,"up",378,1,"Guest12"
45,0.571888864040375,0.472155541181564,35.0100021362305,145.511322021484,46.1246719360352,232.999,2016.998,982.003,"Pictures_Onset",976.998,"12","Healthy",12,20,20,4,"no","up","Left",1,"FS","FL",12,"up",378,1,"Guest12"
45,0.396481454372406,0.490629613399506,-48.9040679931641,140.831100463867,44.4207382202148,133.005,2449.997,1415.002,"Pictures_Onset",1409.997,"12","Sugary",12,20,20,4,"no","up","Left",1,"FS","FL",12,"up",378,1,"Guest12"
45,0.397927522659302,0.496666610240936,-48.107967376709,139.307998657227,43.866813659668,367.002,2616,1581.005,"Pictures_Onset",1576,"12","Sugary",12,20,20,4,"no","up","Left",1,"FS","FL",12,"up",378,1,"Guest12"
46,0.605925917625427,0.474666655063629,51.3322219848633,144.847778320312,45.8829650878906,133.004,1379.994,350.004,"Pictures_Onset",339.994,"12","Sugary",12,20,20,1,"no","up","Left",0,"FL","FS",12,"up",404,1,"Guest12"
46,0.623888909816742,0.441999971866608,59.9357109069824,153.118865966797,48.8941230773926,332.992,1646.003,616.013,"Pictures_Onset",606.003,"12","Sugary",12,20,20,1,"no","up","Left",0,"FL","FS",12,"up",404,1,"Guest12"
46,0.38740000128746,0.464399993419647,-53.2293319702148,147.452331542969,46.8316650390625,148.992,2079.002,1049.012,"Pictures_Onset",1039.002,"12","Healthy",12,20,20,1,"no","up","Left",0,"FL","FS",12,"up",404,1,"Guest12"
46,0.363740712404251,0.485833287239075,-64.5075912475586,142.027587890625,44.8559303283691,282.995,2478.003,1448.013,"Pictures_Onset",1438.003,"12","Healthy",12,20,20,1,"no","up","Left",0,"FL","FS",12,"up",404,1,"Guest12"
46,0.396878749132156,0.488969683647156,-48.6336326599121,141.245758056641,44.5718231201172,167.001,2793.997,1764.007,"Pictures_Onset",1753.997,"12","Healthy",12,20,20,1,"no","up","Left",0,"FL","FS",12,"up",404,1,"Guest12"
47,0.323311120271683,0.465955555438995,-83.823112487793,147.070449829102,46.6931076049805,233.011,1267.994,182.989,"Pictures_Onset",227.994,"12","Sugary",12,20,20,2,"no","down","Right",0,"FS","FL",12,"down",410,1,"Guest12"
47,0.576250016689301,0.483194470405579,37.173885345459,142.70637512207,45.1044425964355,183.002,1584.998,499.993,"Pictures_Onset",544.998,"12","Healthy",12,20,20,2,"no","down","Right",0,"FS","FL",12,"down",410,1,"Guest12"
47,0.567449986934662,0.494299978017807,32.9248275756836,139.929672241211,44.0926666259766,317.005,2016.998,931.993,"Pictures_Onset",976.998,"12","Healthy",12,20,20,2,"no","down","Right",0,"FS","FL",12,"down",410,1,"Guest12"
47,0.56057471036911,0.509643733501434,29.7021808624268,136.025177001953,42.6721839904785,465.996,2367.002,1281.997,"Pictures_Onset",1327.002,"12","Healthy",12,20,20,2,"no","down","Right",0,"FS","FL",12,"down",410,1,"Guest12"
47,0.555374979972839,0.516125023365021,27.1620826721191,134.407089233398,42.0829162597656,117.005,2864.998,1779.993,"Pictures_Onset",1824.998,"12","Healthy",12,20,20,2,"no","down","Right",0,"FS","FL",12,"down",410,1,"Guest12"
48,0.418874979019165,0.471041679382324,-38.1612510681152,145.810409545898,46.2312507629395,116.007,1258.995,233.997,"Pictures_Onset",218.995,"12","Healthy",12,20,20,3,"no","down","Right",1,"FL","FS",12,"down",427,1,"Guest12"
48,0.610166668891907,0.459866672754288,53.4793319702148,148.583999633789,47.2426681518555,150.004,1440.998,416,"Pictures_Onset",400.998,"12","Sugary",12,20,20,3,"no","down","Right",1,"FL","FS",12,"down",427,1,"Guest12"
48,0.630871772766113,0.425999999046326,63.343074798584,157.154373168945,50.3625679016113,200,1624,599.002,"Pictures_Onset",584,"12","Sugary",12,20,20,3,"no","down","Right",1,"FL","FS",12,"down",427,1,"Guest12"
49,0.372222244739532,0.468733370304108,-60.4675483703613,146.376647949219,46.4393310546875,232.998,1736,699.008,"Pictures_Onset",696,"12","Sugary",12,20,20,1,"no","up","Left",1,"FS","FL",13,"up",443,1,"Guest12"
49,0.63889479637146,0.451421022415161,67.1273651123047,150.754196166992,48.033863067627,300.007,2101.99,1064.998,"Pictures_Onset",1061.99,"12","Healthy",12,20,20,1,"no","up","Left",1,"FS","FL",13,"up",443,1,"Guest12"
49,0.60103702545166,0.468148112297058,49.0585174560547,146.522247314453,46.4925880432129,132.992,2568,1531.008,"Pictures_Onset",1528,"12","Healthy",12,20,20,1,"no","up","Left",1,"FS","FL",13,"up",443,1,"Guest12"
49,0.403166681528091,0.450699985027313,-45.7159996032715,150.924331665039,48.0936660766602,150.003,2833.997,1797.005,"Pictures_Onset",1793.997,"12","Sugary",12,20,20,1,"no","up","Left",1,"FS","FL",13,"up",443,1,"Guest12"
50,0.437083333730698,0.482833355665207,-29.4727764129639,142.816390991211,45.1441650390625,183.001,1259.994,99.9939999999999,"Pictures_Onset",219.994,"12","Healthy",12,20,20,2,"no","up","Left",0,"FL","FS",13,"up",455,1,"Guest12"
50,0.435333341360092,0.478083342313766,-30.2333335876465,144.041259765625,45.5920829772949,116.006,1476.992,316.992,"Pictures_Onset",436.992,"12","Healthy",12,20,20,2,"no","up","Left",0,"FL","FS",13,"up",455,1,"Guest12"
50,0.670555531978607,0.467577785253525,82.266227722168,146.658676147461,46.5431098937988,232.998,1675.994,515.994,"Pictures_Onset",635.994,"12","Sugary",12,20,20,2,"no","up","Left",0,"FL","FS",13,"up",455,1,"Guest12"
50,0.650019645690918,0.470372498035431,72.4821548461914,145.967651367188,46.2900009155273,266.995,2041.997,881.997,"Pictures_Onset",1001.997,"12","Sugary",12,20,20,2,"no","up","Left",0,"FL","FS",13,"up",455,1,"Guest12"
51,0.378057986497879,0.484492808580399,-57.6579627990723,142.381301879883,44.9853630065918,366.003,1258.995,233.997,"Pictures_Onset",218.995,"12","Sugary",12,20,20,3,"no","down","Right",0,"FS","FL",13,"down",449,1,"Guest12"
51,0.372151553630829,0.492181807756424,-60.5321197509766,140.455139160156,44.285457611084,166.003,1657.997,632.999,"Pictures_Onset",617.997,"12","Sugary",12,20,20,3,"no","down","Right",0,"FS","FL",13,"down",449,1,"Guest12"
51,0.642166674137115,0.455045431852341,68.7554473876953,149.837112426758,47.6984825134277,349.004,1907.994,882.996,"Pictures_Onset",867.994,"12","Healthy",12,20,20,3,"no","down","Right",0,"FS","FL",13,"down",449,1,"Guest12"
51,0.643288910388947,0.454755514860153,69.213996887207,149.927764892578,47.7333335876465,233.997,2289.997,1264.999,"Pictures_Onset",1249.997,"12","Healthy",12,20,20,3,"no","down","Right",0,"FS","FL",13,"down",449,1,"Guest12"
51,0.647523760795593,0.469119042158127,71.2128601074219,146.264770507812,46.3990440368652,217.011,2555.994,1530.996,"Pictures_Onset",1515.994,"12","Healthy",12,20,20,3,"no","down","Right",0,"FS","FL",13,"down",449,1,"Guest12"
52,0.572435915470123,0.465948700904846,35.3561553955078,147.082550048828,46.6971778869629,199.002,1266.995,232.998,"Pictures_Onset",226.995,"12","Sugary",12,20,20,4,"no","down","Right",1,"FL","FS",13,"down",466,1,"Guest12"
52,0.351888984441757,0.481536984443665,-70.2068405151367,143.133255004883,45.2597274780273,583.002,1548.992,514.995,"Pictures_Onset",508.992,"12","Healthy",12,20,20,4,"no","down","Right",1,"FL","FS",13,"down",466,1,"Guest12"
52,0.354023784399033,0.478928536176682,-69.1173782348633,143.767379760742,45.490478515625,216,2166.003,1132.006,"Pictures_Onset",1126.003,"12","Healthy",12,20,20,4,"no","down","Right",1,"FL","FS",13,"down",466,1,"Guest12"
52,0.356800049543381,0.483466655015945,-67.8788070678711,142.637466430664,45.0781364440918,400,2431.002,1397.005,"Pictures_Onset",1391.002,"12","Healthy",12,20,20,4,"no","down","Right",1,"FL","FS",13,"down",466,1,"Guest12"
53,0.440358966588974,0.491179496049881,-27.8607692718506,140.72102355957,44.3820533752441,200.998,1552,514.995,"Pictures_Onset",512,"12","Sugary",12,20,20,2,"no","up","Left",1,"FS","FL",14,"up",394,1,"Guest12"
53,0.408374965190887,0.44716665148735,-43.1187477111816,151.778732299805,48.4070854187012,117.005,1801.997,764.992,"Pictures_Onset",761.997,"12","Sugary",12,20,20,2,"no","up","Left",1,"FS","FL",14,"up",394,1,"Guest12"
53,0.653066635131836,0.450799971818924,73.9079971313477,150.887557983398,48.0817756652832,232.998,2001.997,964.992,"Pictures_Onset",961.997,"12","Healthy",12,20,20,2,"no","up","Left",1,"FS","FL",14,"up",394,1,"Guest12"
53,0.449666708707809,0.500969707965851,-23.3757572174072,138.234558105469,43.475456237793,166.989,2301.005,1264,"Pictures_Onset",1261.005,"12","Sugary",12,20,20,2,"no","up","Left",1,"FS","FL",14,"up",394,1,"Guest12"
54,0.617708325386047,0.47495836019516,56.9210433959961,144.783752441406,45.8604164123535,249.997,1256.998,216.998,"Pictures_Onset",216.998,"12","Sugary",12,20,20,3,"no","up","Left",0,"FL","FS",14,"up",482,1,"Guest12"
54,0.394266694784164,0.469200015068054,-49.9024467468262,146.248870849609,46.3933372497559,232.999,1590.003,550.003,"Pictures_Onset",550.003,"12","Healthy",12,20,20,3,"no","up","Left",0,"FL","FS",14,"up",482,1,"Guest12"
54,0.367637664079666,0.460144907236099,-62.666088104248,148.526962280273,47.2217445373535,365.005,1872.998,832.998,"Pictures_Onset",832.998,"12","Healthy",12,20,20,3,"no","up","Left",0,"FL","FS",14,"up",482,1,"Guest12"
54,0.629298269748688,0.424508810043335,62.5033264160156,157.541580200195,50.5024604797363,298.995,2422.003,1382.003,"Pictures_Onset",1382.003,"12","Sugary",12,20,20,3,"no","up","Left",0,"FL","FS",14,"up",482,1,"Guest12"
54,0.646000027656555,0.455125004053116,70.5374984741211,149.785842895508,47.6795845031738,117.005,2753.997,1713.997,"Pictures_Onset",1713.997,"12","Sugary",12,20,20,3,"no","up","Left",0,"FL","FS",14,"up",482,1,"Guest12"
55,0.583166658878326,0.474861145019531,40.4215278625488,144.829315185547,45.8758354187012,382.988,1258.01,232.999,"Pictures_Onset",218.01,"12","Healthy",12,20,20,4,"no","down","Right",0,"FS","FL",14,"down",405,1,"Guest12"
55,0.587090909481049,0.44136369228363,42.3503036499023,153.276672363281,48.9527244567871,166.003,1675.008,649.997,"Pictures_Onset",635.008,"12","Healthy",12,20,20,4,"no","down","Right",0,"FS","FL",14,"down",405,1,"Guest12"
55,0.35369998216629,0.465233325958252,-69.2898406982422,147.251174926758,46.7581672668457,316.992,1907.008,881.997,"Pictures_Onset",867.008,"12","Sugary",12,20,20,4,"no","down","Right",0,"FS","FL",14,"down",405,1,"Guest12"
55,0.60688328742981,0.463233321905136,51.8194961547852,147.751495361328,46.9406661987305,316.006,2407.002,1381.991,"Pictures_Onset",1367.002,"12","Healthy",12,20,20,4,"no","down","Right",0,"FS","FL",14,"down",405,1,"Guest12"
55,0.581416606903076,0.443333297967911,39.5691680908203,152.787216186523,48.7733345031738,183.002,2756.006,1730.995,"Pictures_Onset",1716.006,"12","Healthy",12,20,20,4,"no","down","Right",0,"FS","FL",14,"down",405,1,"Guest12"
56,0.607800006866455,0.473699986934662,52.2556648254395,145.157012939453,45.996997833252,150.003,1433.997,399.002,"Pictures_Onset",393.997,"12","Sugary",12,20,20,1,"no","down","Right",1,"FL","FS",14,"down",529,1,"Guest12"
56,0.367611080408096,0.472361117601395,-62.6094398498535,145.472793579102,46.1108360290527,182.003,1734.003,699.008,"Pictures_Onset",694.003,"12","Healthy",12,20,20,1,"no","down","Right",1,"FL","FS",14,"down",529,1,"Guest12"
56,0.366791695356369,0.444958359003067,-63.0787544250488,152.394165039062,48.6304206848145,116.006,2049.997,1015.002,"Pictures_Onset",1009.997,"12","Healthy",12,20,20,1,"no","down","Right",1,"FL","FS",14,"down",529,1,"Guest12"
56,0.656861126422882,0.448972254991531,75.7472229003906,151.353897094727,48.2516670227051,183.002,2248.998,1214.003,"Pictures_Onset",1208.998,"12","Sugary",12,20,20,1,"no","down","Right",1,"FL","FS",14,"down",529,1,"Guest12"
56,0.441036939620972,0.464518487453461,-27.5142593383789,147.463882446289,46.8370323181152,281.997,2616,1581.005,"Pictures_Onset",1576,"12","Healthy",12,20,20,1,"no","down","Right",1,"FL","FS",14,"down",529,1,"Guest12"
57,0.624538481235504,0.453871786594391,60.2343559265137,150.106918334961,47.7974319458008,200,1411.994,383.002,"Pictures_Onset",371.994,"12","Healthy",12,20,20,3,"no","up","Left",1,"FS","FL",15,"up",484,1,"Guest12"
57,0.6480832695961,0.468208342790604,71.5420837402344,146.482086181641,46.477912902832,116.006,1644.992,616,"Pictures_Onset",604.992,"12","Healthy",12,20,20,3,"no","up","Left",1,"FS","FL",15,"up",484,1,"Guest12"
57,0.373844474554062,0.453422248363495,-59.6204452514648,150.246887207031,47.8482208251953,232,1827.994,799.002,"Pictures_Onset",787.994,"12","Sugary",12,20,20,3,"no","up","Left",1,"FS","FL",15,"up",484,1,"Guest12"
57,0.3803571164608,0.423666685819626,-56.569522857666,157.734512329102,50.5745239257812,216,2093.99,1064.998,"Pictures_Onset",1053.99,"12","Sugary",12,20,20,3,"no","up","Left",1,"FS","FL",15,"up",484,1,"Guest12"
57,0.630833387374878,0.450888901948929,63.2705574035645,150.90168762207,48.0877799987793,182.003,2426.995,1398.003,"Pictures_Onset",1386.995,"12","Healthy",12,20,20,3,"no","up","Left",1,"FS","FL",15,"up",484,1,"Guest12"
58,0.571333348751068,0.468041718006134,34.8387489318848,146.530822753906,46.497501373291,116.992,1438.003,350.003,"Pictures_Onset",398.003,"12","Sugary",12,20,20,4,"no","up","Left",0,"FL","FS",15,"up",481,1,"Guest12"
58,0.347533315420151,0.500066637992859,-72.2559967041016,138.440521240234,43.5511627197266,316.007,1637.99,549.99,"Pictures_Onset",597.99,"12","Healthy",12,20,20,4,"no","up","Left",0,"FL","FS",15,"up",481,1,"Guest12"
58,0.449044406414032,0.484577745199203,-23.6724433898926,142.334671020508,44.9688835144043,232.999,2352.998,1264.998,"Pictures_Onset",1312.998,"12","Healthy",12,20,20,4,"no","up","Left",0,"FL","FS",15,"up",481,1,"Guest12"
58,0.446666657924652,0.485031813383102,-24.8393669128418,142.263168334961,44.942699432373,333.004,2619.994,1531.994,"Pictures_Onset",1579.994,"12","Healthy",12,20,20,4,"no","up","Left",0,"FL","FS",15,"up",481,1,"Guest12"
59,0.421088874340057,0.477155566215515,-37.1217765808105,144.231338500977,45.6588897705078,232.998,1253.005,167.002,"Pictures_Onset",213.005,"12","Sugary",12,20,20,1,"no","down","Right",0,"FS","FL",15,"down",486,1,"Guest12"
59,0.588291704654694,0.461458325386047,42.9558296203613,148.20166015625,47.1033363342285,116.006,1552,465.997,"Pictures_Onset",512,"12","Healthy",12,20,20,1,"no","down","Right",0,"FS","FL",15,"down",486,1,"Guest12"
59,0.358909100294113,0.453151494264603,-66.8839340209961,150.306365966797,47.8687858581543,167.001,1735.002,648.999,"Pictures_Onset",695.002,"12","Sugary",12,20,20,1,"no","down","Right",0,"FS","FL",15,"down",486,1,"Guest12"
59,0.592833340167999,0.448500007390976,45.0716667175293,151.481399536133,48.2975044250488,184,1968,881.997,"Pictures_Onset",928,"12","Healthy",12,20,20,1,"no","down","Right",0,"FS","FL",15,"down",486,1,"Guest12"
59,0.628212094306946,0.450484871864319,62.0936317443848,151.020004272461,48.1300010681152,167.002,2200.998,1114.995,"Pictures_Onset",1160.998,"12","Healthy",12,20,20,1,"no","down","Right",0,"FS","FL",15,"down",486,1,"Guest12"
59,0.641818106174469,0.474121183156967,68.5566635131836,145.004852294922,45.939697265625,166.004,2400.998,1314.995,"Pictures_Onset",1360.998,"12","Healthy",12,20,20,1,"no","down","Right",0,"FS","FL",15,"down",486,1,"Guest12"
59,0.357261925935745,0.443571418523788,-67.6035690307617,152.706665039062,48.7421455383301,216.999,2632.998,1546.995,"Pictures_Onset",1592.998,"12","Sugary",12,20,20,1,"no","down","Right",0,"FS","FL",15,"down",486,1,"Guest12"
60,0.643575727939606,0.462424278259277,69.439094543457,147.943634033203,47.0090942382812,166.004,1501.99,482.995,"Pictures_Onset",461.99,"12","Sugary",12,20,20,2,"no","down","Right",1,"FL","FS",15,"down",452,1,"Guest12"
60,0.686249971389771,0.448583334684372,89.772087097168,151.463333129883,48.290412902832,115.993,1719.002,700.007,"Pictures_Onset",679.002,"12","Sugary",12,20,20,2,"no","down","Right",1,"FL","FS",15,"down",452,1,"Guest12"
60,0.426833271980286,0.487378805875778,-34.350154876709,141.659561157227,44.7227249145508,350.003,1900.992,881.997,"Pictures_Onset",860.992,"12","Healthy",12,20,20,2,"no","down","Right",1,"FL","FS",15,"down",452,1,"Guest12"
60,0.673876523971558,0.45983949303627,83.8496170043945,148.627517700195,47.2587661743164,433.012,2333.99,1314.995,"Pictures_Onset",1293.99,"12","Sugary",12,20,20,2,"no","down","Right",1,"FL","FS",15,"down",452,1,"Guest12"
61,0.569888830184937,0.505777776241302,34.1544418334961,136.955551147461,43.0096282958984,133.004,1515.994,482.996,"Pictures_Onset",475.994,"12","Healthy",12,20,20,4,"no","down","Left",1,"FS","FL",16,"down",596,1,"Guest12"
61,0.352111101150513,0.517428576946259,-70.08984375,134.07096862793,41.9611129760742,333.004,1731.994,698.996,"Pictures_Onset",691.994,"12","Sugary",12,20,20,4,"no","down","Left",1,"FS","FL",16,"down",596,1,"Guest12"
61,0.596520066261292,0.482013344764709,46.9083976745605,142.991333007812,45.2083969116211,399.001,2147.994,1114.996,"Pictures_Onset",1107.994,"12","Healthy",12,20,20,4,"no","down","Left",1,"FS","FL",16,"down",596,1,"Guest12"
61,0.442562460899353,0.508687496185303,-26.7804145812988,136.250839233398,42.7541656494141,250.01,2629.99,1596.992,"Pictures_Onset",1589.99,"12","Sugary",12,20,20,4,"no","down","Left",1,"FS","FL",16,"down",596,1,"Guest12"
62,0.605733335018158,0.463600009679794,51.2200012207031,147.667999267578,46.9093360900879,149.004,1687.002,648.999,"Pictures_Onset",647.002,"12","Sugary",12,20,20,1,"no","down","Left",0,"FL","FS",16,"down",477,1,"Guest12"
62,0.673666715621948,0.45038890838623,83.7433319091797,150.982772827148,48.116943359375,184,1903.002,864.999,"Pictures_Onset",863.002,"12","Sugary",12,20,20,1,"no","down","Left",0,"FL","FS",16,"down",477,1,"Guest12"
62,0.36856409907341,0.465974360704422,-62.2353858947754,147.034606933594,46.6799964904785,200,2185.997,1147.994,"Pictures_Onset",1145.997,"12","Healthy",12,20,20,1,"no","down","Left",0,"FL","FS",16,"down",477,1,"Guest12"
62,0.410302996635437,0.443545460700989,-42.2669715881348,152.728805541992,48.75,165.991,2652.006,1614.003,"Pictures_Onset",1612.006,"12","Healthy",12,20,20,1,"no","down","Left",0,"FL","FS",16,"down",477,1,"Guest12"
63,0.638518571853638,0.447814792394638,66.8796234130859,151.633331298828,48.3518524169922,134.004,1592.998,499.008,"Pictures_Onset",552.998,"12","Healthy",12,20,20,2,"no","up","Right",0,"FS","FL",16,"up",475,1,"Guest12"
63,0.41858971118927,0.483615398406982,-38.3005104064941,142.588195800781,45.0594863891602,200,1808.998,715.008,"Pictures_Onset",768.998,"12","Sugary",12,20,20,2,"no","up","Right",0,"FS","FL",16,"up",475,1,"Guest12"
63,0.671074092388153,0.474592626094818,82.5755615234375,144.90592956543,45.9038848876953,283.994,2208,1114.01,"Pictures_Onset",1168,"12","Healthy",12,20,20,2,"no","up","Right",0,"FS","FL",16,"up",475,1,"Guest12"
63,0.444250017404556,0.484472185373306,-26.0208377838135,142.379440307617,44.9858360290527,181.99,2575.002,1481.012,"Pictures_Onset",1535.002,"12","Sugary",12,20,20,2,"no","up","Right",0,"FS","FL",16,"up",475,1,"Guest12"
63,0.632500052452087,0.456041663885117,63.9937515258789,149.536254882812,47.5895805358887,115.993,2857.997,1764.007,"Pictures_Onset",1817.997,"12","Healthy",12,20,20,2,"no","up","Right",0,"FS","FL",16,"up",475,1,"Guest12"
64,0.376300007104874,0.506733298301697,-58.583667755127,136.759002685547,42.9390029907227,150.003,1845.005,816,"Pictures_Onset",805.005,"12","Healthy",12,20,20,3,"no","up","Right",1,"FL","FS",16,"up",442,1,"Guest12"
64,0.615461587905884,0.493769228458405,55.8597412109375,140.046417236328,44.1369209289551,200,2061.005,1032,"Pictures_Onset",1021.005,"12","Sugary",12,20,20,3,"no","up","Right",1,"FL","FS",16,"up",442,1,"Guest12"
64,0.418210506439209,0.486263185739517,-38.466136932373,141.932098388672,44.8222770690918,299.008,2344,1314.995,"Pictures_Onset",1304,"12","Healthy",12,20,20,3,"no","up","Right",1,"FL","FS",16,"up",442,1,"Guest12"
64,0.420755535364151,0.504666686058044,-37.2508888244629,137.291549682617,43.1320037841797,232.998,2677.005,1648,"Pictures_Onset",1637.005,"12","Healthy",12,20,20,3,"no","up","Right",1,"FL","FS",16,"up",442,1,"Guest12"
65,0.629683375358582,0.467716634273529,62.6765022277832,146.624664306641,46.5298309326172,316.992,1401.011,366.003,"Pictures_Onset",361.011,"12","Healthy",12,20,20,1,"no","down","Left",1,"FS","FL",17,"down",445,1,"Guest12"
65,0.372411787509918,0.466921538114548,-60.3613777160645,146.798828125,46.5945129394531,266.01,1800,764.992,"Pictures_Onset",760,"12","Sugary",12,20,20,1,"no","down","Left",1,"FS","FL",17,"down",445,1,"Guest12"
65,0.383487194776535,0.438923090696335,-55.0743637084961,153.899230957031,49.1782073974609,200,2100.006,1064.998,"Pictures_Onset",1060.006,"12","Sugary",12,20,20,1,"no","down","Left",1,"FS","FL",17,"down",445,1,"Guest12"
65,0.570366740226746,0.449266672134399,34.3633346557617,151.293670654297,48.2283401489258,150.003,2383.002,1347.994,"Pictures_Onset",1343.002,"12","Healthy",12,20,20,1,"no","down","Left",1,"FS","FL",17,"down",445,1,"Guest12"
65,0.440947294235229,0.468842059373856,-27.5780696868896,146.354766845703,46.4321136474609,299.993,2666.01,1631.002,"Pictures_Onset",1626.01,"12","Sugary",12,20,20,1,"no","down","Left",1,"FS","FL",17,"down",445,1,"Guest12"
66,0.433787852525711,0.462060570716858,-31.0175762176514,148.054229736328,47.0503044128418,167.002,1448.998,416,"Pictures_Onset",408.998,"12","Healthy",12,20,20,2,"no","down","Left",0,"FL","FS",17,"down",485,1,"Guest12"
66,0.681409060955048,0.450939387083054,87.4701538085938,150.893035888672,48.0839462280273,350.003,1764.992,731.994,"Pictures_Onset",724.992,"12","Sugary",12,20,20,2,"no","down","Left",0,"FL","FS",17,"down",485,1,"Guest12"
66,0.441699981689453,0.454533338546753,-27.2116661071777,149.945343017578,47.7390022277832,150.003,2248,1215.002,"Pictures_Onset",1208,"12","Healthy",12,20,20,2,"no","down","Left",0,"FL","FS",17,"down",485,1,"Guest12"
66,0.640941143035889,0.452470600605011,68.1045150756836,150.471176147461,47.9296035766602,265.997,2480.998,1448,"Pictures_Onset",1440.998,"12","Sugary",12,20,20,2,"no","down","Left",0,"FL","FS",17,"down",485,1,"Guest12"
66,0.638999998569489,0.468974381685257,67.130256652832,146.296417236328,46.4097366333008,199.002,2780.992,1747.994,"Pictures_Onset",1740.992,"12","Sugary",12,20,20,2,"no","down","Left",0,"FL","FS",17,"down",485,1,"Guest12"
67,0.39747217297554,0.471361130475998,-48.3869476318359,145.708343505859,46.195556640625,183.001,1241.997,216.999,"Pictures_Onset",201.997,"12","Sugary",12,20,20,3,"no","up","Right",0,"FS","FL",17,"up",428,1,"Guest12"
67,0.376222252845764,0.454277753829956,-58.5974998474121,150.018615722656,47.7647247314453,183.002,1474.995,449.997,"Pictures_Onset",434.995,"12","Sugary",12,20,20,3,"no","up","Right",0,"FS","FL",17,"up",428,1,"Guest12"
67,0.374740719795227,0.432555556297302,-59.1659278869629,155.532211303711,49.7729644775391,133.005,1690.995,665.997,"Pictures_Onset",650.995,"12","Sugary",12,20,20,3,"no","up","Right",0,"FS","FL",17,"up",428,1,"Guest12"
67,0.653955519199371,0.453377783298492,74.3091125488281,150.281112670898,47.8602180480957,232.999,1906.995,881.997,"Pictures_Onset",866.995,"12","Healthy",12,20,20,3,"no","up","Right",0,"FS","FL",17,"up",428,1,"Guest12"
67,0.633055508136749,0.461388915777206,64.3199996948242,148.206939697266,47.1055564880371,184,2172.992,1147.994,"Pictures_Onset",1132.992,"12","Healthy",12,20,20,3,"no","up","Right",0,"FS","FL",17,"up",428,1,"Guest12"
67,0.374283343553543,0.432016670703888,-59.4558334350586,155.659164428711,49.8186645507812,316.006,2555.994,1530.996,"Pictures_Onset",1515.994,"12","Sugary",12,20,20,3,"no","up","Right",0,"FS","FL",17,"up",428,1,"Guest12"
68,0.582333326339722,0.473333358764648,40.0469665527344,145.168487548828,45.9996948242188,167.002,1267.008,232.998,"Pictures_Onset",227.008,"12","Sugary",12,20,20,4,"no","up","Right",1,"FL","FS",17,"up",550,1,"Guest12"
68,0.356200009584427,0.496800005435944,-68.0999908447266,139.301330566406,43.8653335571289,150.004,1500.006,465.996,"Pictures_Onset",460.006,"12","Healthy",12,20,20,4,"no","up","Right",1,"FL","FS",17,"up",550,1,"Guest12"
68,0.58474999666214,0.466916650533676,41.1975021362305,146.856246948242,46.6149978637695,116.006,1733.005,698.995,"Pictures_Onset",693.005,"12","Sugary",12,20,20,4,"no","up","Right",1,"FL","FS",17,"up",550,1,"Guest12"
68,0.359684228897095,0.489789456129074,-66.4599990844727,141.067535400391,44.5078964233398,299.994,2681.011,1647.001,"Pictures_Onset",1641.011,"12","Healthy",12,20,20,4,"no","up","Right",1,"FL","FS",17,"up",550,1,"Guest12"
70,0.628222227096558,0.467537045478821,62.054817199707,146.659820556641,46.5425910949707,282.996,1760.998,733.004,"Pictures_Onset",720.998,"12","Sugary",12,20,20,3,"no","down","Left",0,"FL","FS",18,"down",420,1,"Guest12"
70,0.390535742044449,0.498738139867783,-51.7580986022949,138.775726318359,43.672981262207,448.998,2127.002,1099.008,"Pictures_Onset",1087.002,"12","Healthy",12,20,20,3,"no","down","Left",0,"FL","FS",18,"down",420,1,"Guest12"
70,0.592244386672974,0.479955524206161,44.772891998291,143.54801940918,45.4088859558105,232.999,2658.995,1631.001,"Pictures_Onset",1618.995,"12","Sugary",12,20,20,3,"no","down","Left",0,"FL","FS",18,"down",420,1,"Guest12"
71,0.410208344459534,0.457125008106232,-42.2570838928223,149.307495117188,47.5062522888184,116.992,1676.006,648.998,"Pictures_Onset",636.006,"12","Sugary",12,20,20,4,"no","up","Right",0,"FS","FL",18,"up",423,1,"Guest12"
71,0.582055449485779,0.475233346223831,39.9646644592285,144.713897705078,45.8347244262695,481.997,1860.006,832.998,"Pictures_Onset",820.006,"12","Healthy",12,20,20,4,"no","up","Right",0,"FS","FL",18,"up",423,1,"Guest12"
71,0.400250017642975,0.462999999523163,-47.038330078125,147.831665039062,46.971248626709,117.005,2441.997,1414.989,"Pictures_Onset",1401.997,"12","Sugary",12,20,20,4,"no","up","Right",0,"FS","FL",18,"up",423,1,"Guest12"
71,0.403597205877304,0.478069424629211,-45.398609161377,144.022232055664,45.5830535888672,382.003,2592,1564.992,"Pictures_Onset",1552,"12","Sugary",12,20,20,4,"no","up","Right",0,"FS","FL",18,"up",423,1,"Guest12"
72,0.365000039339066,0.479592591524124,-63.8977813720703,143.632217407227,45.4388885498047,133.005,1242.995,216.998,"Pictures_Onset",202.995,"12","Healthy",12,20,20,1,"no","up","Right",1,"FL","FS",18,"up",437,1,"Guest12"
72,0.613333284854889,0.469185203313828,54.8233337402344,146.223327636719,46.3840751647949,133.005,1458.995,432.998,"Pictures_Onset",418.995,"12","Sugary",12,20,20,1,"no","up","Right",1,"FL","FS",18,"up",437,1,"Guest12"
72,0.362185180187225,0.486740738153458,-65.2759246826172,141.817413330078,44.7811088562012,134.003,1690.995,664.998,"Pictures_Onset",650.995,"12","Healthy",12,20,20,1,"no","up","Right",1,"FL","FS",18,"up",437,1,"Guest12"
72,0.607909142971039,0.453575730323792,52.3566665649414,150.216049194336,47.8378791809082,166.003,1907.994,881.997,"Pictures_Onset",867.994,"12","Sugary",12,20,20,1,"no","up","Right",1,"FL","FS",18,"up",437,1,"Guest12"
72,0.383194446563721,0.466305524110794,-55.2502746582031,146.963607788086,46.6538887023926,184,2156.992,1130.995,"Pictures_Onset",1116.992,"12","Healthy",12,20,20,1,"no","up","Right",1,"FL","FS",18,"up",437,1,"Guest12"
72,0.45084211230278,0.440649121999741,-22.8138580322266,153.469818115234,49.0222816467285,300.007,2589.99,1563.993,"Pictures_Onset",1549.99,"12","Healthy",12,20,20,1,"no","up","Right",1,"FL","FS",18,"up",437,1,"Guest12"
73,0.607972204685211,0.504472196102142,52.3952751159668,137.360275268555,43.1577758789062,183.002,1240,216.998,"Pictures_Onset",200,"12","Healthy",12,20,20,3,"no","down","Left",1,"FS","FL",19,"down",582,1,"Guest12"
73,0.625641107559204,0.505435824394226,60.8059005737305,137.074615478516,43.0541038513184,200,1456,432.998,"Pictures_Onset",416,"12","Healthy",12,20,20,3,"no","down","Left",1,"FS","FL",19,"down",582,1,"Guest12"
73,0.387846142053604,0.486076861619949,-52.9389801025391,141.969741821289,44.8379516601562,200,1839.002,816,"Pictures_Onset",799.002,"12","Sugary",12,20,20,3,"no","down","Left",1,"FS","FL",19,"down",582,1,"Guest12"
73,0.384794861078262,0.481846153736115,-54.4943580627441,143.075637817383,45.237434387207,200,2072,1048.998,"Pictures_Onset",1032,"12","Sugary",12,20,20,3,"no","down","Left",1,"FS","FL",19,"down",582,1,"Guest12"
73,0.628842115402222,0.476587682962418,62.3558807373047,144.382446289062,45.7138557434082,615.002,2354.995,1331.993,"Pictures_Onset",1314.995,"12","Healthy",12,20,20,3,"no","down","Left",1,"FS","FL",19,"down",582,1,"Guest12"
74,0.576300024986267,0.481233298778534,37.1856651306152,143.204010009766,45.2849960327148,150.003,1243.994,215.002,"Pictures_Onset",203.994,"12","Sugary",12,20,20,4,"no","down","Left",0,"FL","FS",19,"down",500,1,"Guest12"
74,0.38496670126915,0.487333357334137,-54.3936653137207,141.673004150391,44.7283325195312,150.003,1476.992,448,"Pictures_Onset",436.992,"12","Healthy",12,20,20,4,"no","down","Left",0,"FL","FS",19,"down",500,1,"Guest12"
74,0.33799996972084,0.499755531549454,-76.8580017089844,138.50910949707,43.5766677856445,232.998,1676.992,648,"Pictures_Onset",636.992,"12","Healthy",12,20,20,4,"no","down","Left",0,"FL","FS",19,"down",500,1,"Guest12"
74,0.637066721916199,0.471466690301895,66.2826690673828,145.630004882812,46.1656684875488,149.991,1992.998,964.006,"Pictures_Onset",952.998,"12","Sugary",12,20,20,4,"no","down","Left",0,"FL","FS",19,"down",500,1,"Guest12"
74,0.59116667509079,0.458041667938232,44.2116622924805,149.070419311523,47.4208335876465,115.994,2176,1147.008,"Pictures_Onset",1136,"12","Sugary",12,20,20,4,"no","down","Left",0,"FL","FS",19,"down",500,1,"Guest12"
74,0.322500020265579,0.479729145765305,-84.2900009155273,143.603942871094,45.4297943115234,248.998,2376,1347.008,"Pictures_Onset",1336,"12","Healthy",12,20,20,4,"no","down","Left",0,"FL","FS",19,"down",500,1,"Guest12"
74,0.434766680002213,0.474133312702179,-30.4589996337891,144.998992919922,45.9386672973633,149.991,2824.998,1796.006,"Pictures_Onset",1784.998,"12","Healthy",12,20,20,4,"no","down","Left",0,"FL","FS",19,"down",500,1,"Guest12"
75,0.611184179782867,0.48697367310524,53.8595581054688,141.756576538086,44.7574577331543,616,1733.005,698.995,"Pictures_Onset",693.005,"12","Healthy",12,20,20,1,"no","up","Right",0,"FS","FL",19,"up",428,1,"Guest12"
76,0.671699941158295,0.488033354282379,82.7960052490234,141.487670898438,44.6593246459961,150.003,1249.997,216,"Pictures_Onset",209.997,"12","Sugary",12,20,20,2,"no","up","Right",1,"FL","FS",19,"up",435,1,"Guest12"
76,0.434435904026031,0.506333351135254,-30.6699962615967,136.888717651367,42.9876899719238,200,1465.997,432,"Pictures_Onset",425.997,"12","Healthy",12,20,20,2,"no","up","Right",1,"FL","FS",19,"up",435,1,"Guest12"
76,0.414866626262665,0.508499979972839,-40.0146636962891,136.291656494141,42.7706680297852,149.004,1699.994,665.997,"Pictures_Onset",659.994,"12","Healthy",12,20,20,2,"no","up","Right",1,"FL","FS",19,"up",435,1,"Guest12"
76,0.676500022411346,0.49079167842865,85.0637512207031,140.798126220703,44.4083366394043,248.998,1932.992,898.995,"Pictures_Onset",892.992,"12","Sugary",12,20,20,2,"no","up","Right",1,"FL","FS",19,"up",435,1,"Guest12"
76,0.63979172706604,0.493124961853027,67.6408309936523,140.206237792969,44.194580078125,116.992,2215.002,1181.005,"Pictures_Onset",1175.002,"12","Sugary",12,20,20,2,"no","up","Right",1,"FL","FS",19,"up",435,1,"Guest12"
76,0.636857151985168,0.475190460681915,66.1671371459961,144.701431274414,45.8319053649902,100.006,2364.992,1330.995,"Pictures_Onset",1324.992,"12","Sugary",12,20,20,2,"no","up","Right",1,"FL","FS",19,"up",435,1,"Guest12"
76,0.579083323478699,0.503888845443726,38.5280570983887,137.478881835938,43.2011108398438,182.989,2798.003,1764.006,"Pictures_Onset",1758.003,"12","Sugary",12,20,20,2,"no","up","Right",1,"FL","FS",19,"up",435,1,"Guest12"
77,0.587296307086945,0.466703742742538,42.3955535888672,146.889251708984,46.6259307861328,133.005,1465.997,432.999,"Pictures_Onset",425.997,"12","Healthy",12,20,20,4,"no","down","Left",1,"FS","FL",20,"down",451,1,"Guest12"
77,0.354277759790421,0.489999979734421,-69.0740661621094,141.004058837891,44.4848098754883,281.997,1665.997,632.999,"Pictures_Onset",625.997,"12","Sugary",12,20,20,4,"no","down","Left",1,"FS","FL",20,"down",451,1,"Guest12"
77,0.596521735191345,0.45307245850563,46.8382682800293,150.337966918945,47.8821754455566,366.004,2197.99,1164.992,"Pictures_Onset",1157.99,"12","Healthy",12,20,20,4,"no","down","Left",1,"FS","FL",20,"down",451,1,"Guest12"
77,0.562144935131073,0.486913114786148,30.3695602416992,141.788391113281,44.7691345214844,366.004,2597.99,1564.992,"Pictures_Onset",1557.99,"12","Healthy",12,20,20,4,"no","down","Left",1,"FS","FL",20,"down",451,1,"Guest12"
78,0.388999968767166,0.474533289670944,-52.4144477844238,144.889099121094,45.8973350524902,232.999,1246.003,149.005,"Pictures_Onset",206.003,"12","Healthy",12,20,20,1,"no","down","Left",0,"FL","FS",20,"down",451,1,"Guest12"
78,0.62623804807663,0.457119047641754,61.0571479797363,149.304534912109,47.5054740905762,216,1811.994,714.996,"Pictures_Onset",771.994,"12","Sugary",12,20,20,1,"no","down","Left",0,"FL","FS",20,"down",451,1,"Guest12"
78,0.625499963760376,0.44479164481163,60.7216720581055,152.451232910156,48.6516647338867,115.994,2062.003,965.005,"Pictures_Onset",1022.003,"12","Sugary",12,20,20,1,"no","down","Left",0,"FL","FS",20,"down",451,1,"Guest12"
78,0.635249972343445,0.464541673660278,65.4116744995117,147.414978027344,46.8166656494141,117.005,2210.995,1113.997,"Pictures_Onset",1170.995,"12","Sugary",12,20,20,1,"no","down","Left",0,"FL","FS",20,"down",451,1,"Guest12"
78,0.415925920009613,0.472370356321335,-39.5203704833984,145.464080810547,46.1074066162109,133.005,2410.995,1313.997,"Pictures_Onset",1370.995,"12","Healthy",12,20,20,1,"no","down","Left",0,"FL","FS",20,"down",451,1,"Guest12"
78,0.417980402708054,0.474549025297165,-38.5356864929199,144.929016113281,45.9119606018066,265.997,2577.997,1480.999,"Pictures_Onset",1537.997,"12","Healthy",12,20,20,1,"no","down","Left",0,"FL","FS",20,"down",451,1,"Guest12"
79,0.364592581987381,0.473604947328568,-64.1337051391602,145.148025512695,45.9932098388672,432.999,1268.006,233.011,"Pictures_Onset",228.006,"12","Sugary",12,20,20,2,"no","up","Right",0,"FS","FL",20,"up",505,1,"Guest12"
79,0.590130925178528,0.473023891448975,43.8241653442383,145.303436279297,46.0486831665039,448.998,1784,749.005,"Pictures_Onset",744,"12","Healthy",12,20,20,2,"no","up","Right",0,"FS","FL",20,"up",505,1,"Guest12"
80,0.37814661860466,0.445293337106705,-57.672924041748,152.311721801758,48.6013336181641,400,1224,199.002,"Pictures_Onset",184,"12","Healthy",12,20,20,3,"no","up","Right",1,"FL","FS",20,"up",467,1,"Guest12"
80,0.624987185001373,0.429128170013428,60.4748611450195,156.394119262695,50.0855140686035,416,1741.005,716.007,"Pictures_Onset",701.005,"12","Sugary",12,20,20,3,"no","up","Right",1,"FL","FS",20,"up",467,1,"Guest12"
80,0.632499992847443,0.455833345651627,64.0683364868164,149.611663818359,47.6170845031738,116.992,2190.003,1165.005,"Pictures_Onset",1150.003,"12","Sugary",12,20,20,3,"no","up","Right",1,"FL","FS",20,"up",467,1,"Guest12"
80,0.379833281040192,0.475187480449677,-56.8320846557617,144.725830078125,45.8377075195312,249.997,2389.005,1364.007,"Pictures_Onset",1349.005,"12","Healthy",12,20,20,3,"no","up","Right",1,"FL","FS",20,"up",467,1,"Guest12"
80,0.564066648483276,0.468622207641602,31.3400020599365,146.399337768555,46.4471168518066,233.011,2722.995,1697.997,"Pictures_Onset",1682.995,"12","Sugary",12,20,20,3,"no","up","Right",1,"FL","FS",20,"up",467,1,"Guest12"
