"trial_id","sx","sy","px","py","pz","duration","timestamp","trial_onset","label","label_onset","subject_nr.x","AOI_visited","subject_nr.y","fat_craving","sugar_craving","Block","practice","Arrow_Direction","Arrow_Position","Congruence","Left_Picture","Right_Picture","Pair_Number","response","response_time","accuracy","part_ID"
1,0.400631546974182,0.49024561047554,-46.2285995483398,140.549652099609,44.3194732666016,299.994,1400.998,367.001,"Pictures_Onset",336,"21","Salty",21,60,30,1,"no","up","Left",1,"FF","FL",1,"up",577,1,"Guest21"
1,0.611571431159973,0.534476220607758,54.5704765319824,129.395477294922,40.2602348327637,216,1850.995,816.998,"Pictures_Onset",785.997,"21","Healthy",21,60,30,1,"no","up","Left",1,"FF","FL",1,"up",577,1,"Guest21"
1,0.64294445514679,0.495925962924957,69.5468521118164,139.107238769531,43.7935218811035,283.994,2166.003,1132.006,"Pictures_Onset",1101.005,"21","Healthy",21,60,30,1,"no","up","Left",1,"FF","FL",1,"up",577,1,"Guest21"
2,0.604058802127838,0.503019571304321,50.9527473449707,137.366668701172,43.1599998474121,264.999,2696.998,1532.006,"Pictures_Onset",1632,"21","Salty",21,60,30,2,"no","up","Left",0,"FL","FF",1,"up",819,1,"Guest21"
3,0.549333274364471,0.522952377796173,24.7695274353027,132.328338623047,41.3261909484863,216,1629.99,600,"Pictures_Onset",564.992,"21","Healthy",21,60,30,3,"no","down","Right",0,"FF","FL",1,"down",579,1,"Guest21"
3,0.551764726638794,0.527588188648224,25.922945022583,131.121765136719,40.8876495361328,266.009,1878.989,848.999,"Pictures_Onset",813.991,"21","Healthy",21,60,30,3,"no","down","Right",0,"FF","FL",1,"down",579,1,"Guest21"
4,0.630104124546051,0.511916637420654,63.3681259155273,135.10417175293,42.3375015258789,249.997,1656,632,"Pictures_Onset",591.002,"21","Salty",21,60,30,4,"no","down","Right",1,"FL","FF",1,"down",602,1,"Guest21"
4,0.406642854213715,0.505595207214355,-43.3678550720215,136.684753417969,42.9123802185059,216,1972.992,948.992,"Pictures_Onset",907.994,"21","Healthy",21,60,30,4,"no","down","Right",1,"FL","FF",1,"down",602,1,"Guest21"
4,0.409900039434433,0.5057333111763,-41.9640007019043,136.643005371094,42.8980026245117,149.991,2222.003,1198.003,"Pictures_Onset",1157.005,"21","Healthy",21,60,30,4,"no","down","Right",1,"FL","FF",1,"down",602,1,"Guest21"
5,0.660282015800476,0.518358945846558,77.8353805541992,133.452819824219,41.7361488342285,199.001,1609.997,384,"Pictures_Onset",544.999,"21","Healthy",21,60,30,2,"no","up","Left",1,"FF","FL",2,"up",483,1,"Guest21"
5,0.613791644573212,0.498645842075348,55.5758323669434,138.445205688477,43.5533294677734,248.998,1859.994,633.997,"Pictures_Onset",794.996,"21","Healthy",21,60,30,2,"no","up","Left",1,"FF","FL",2,"up",483,1,"Guest21"
5,0.592862725257874,0.491274565458298,45.5727462768555,140.301773071289,44.2278442382812,265.997,2657.997,1432,"Pictures_Onset",1592.999,"21","Healthy",21,60,30,2,"no","up","Left",1,"FF","FL",2,"up",483,1,"Guest21"
6,0.577611088752747,0.523083329200745,38.3222236633301,132.273468017578,41.306941986084,384,1626.995,599.001,"Pictures_Onset",561.997,"21","Salty",21,60,30,3,"no","up","Left",0,"FL","FF",2,"up",633,1,"Guest21"
7,0.37571793794632,0.486025661230087,-58.2569198608398,141.686676025391,44.7333297729492,199.002,1451.008,416,"Pictures_Onset",386.01,"21","Salty",21,60,30,4,"no","down","Right",0,"FF","FL",2,"down",653,1,"Guest21"
7,0.614333391189575,0.505941152572632,55.8905944824219,136.608810424805,42.8837242126465,266.01,1784,748.992,"Pictures_Onset",719.002,"21","Healthy",21,60,30,4,"no","down","Right",0,"FF","FL",2,"down",653,1,"Guest21"
7,0.650666654109955,0.50125640630722,73.1982040405273,137.742568969727,43.2964057922363,200.998,2099.008,1064,"Pictures_Onset",1034.01,"21","Healthy",21,60,30,4,"no","down","Right",0,"FF","FL",2,"down",653,1,"Guest21"
7,0.444527745246887,0.507444381713867,-25.3000907897949,136.208801269531,42.7386131286621,582.003,2366.003,1330.995,"Pictures_Onset",1301.005,"21","Salty",21,60,30,4,"no","down","Right",0,"FF","FL",2,"down",653,1,"Guest21"
8,0.376166641712189,0.491854131221771,-57.9874954223633,140.155639648438,44.1743774414062,249.997,1520.998,499.993,"Pictures_Onset",456,"21","Healthy",21,60,30,1,"no","down","Right",1,"FL","FF",2,"down",715,1,"Guest21"
9,0.585555493831635,0.509177803993225,42.0951118469238,135.776901245117,42.5819969177246,232.999,1549.99,515.993,"Pictures_Onset",484.992,"21","Healthy",21,60,30,3,"no","up","Left",1,"FF","FL",3,"up",644,1,"Guest21"
10,0.372400015592575,0.48400005698204,-59.7597808837891,142.144332885742,44.8986701965332,482.995,1451.008,416,"Pictures_Onset",386.01,"21","Healthy",21,60,30,4,"no","up","Left",0,"FL","FF",3,"up",381,1,"Guest21"
11,0.62157154083252,0.506928563117981,59.3014259338379,136.369766235352,42.7983322143555,216,1714.995,681.997,"Pictures_Onset",649.997,"21","Healthy",21,60,30,1,"no","down","Right",0,"FF","FL",3,"down",642,1,"Guest21"
12,0.601878762245178,0.508696973323822,49.8918228149414,135.868041992188,42.6151504516602,350.003,1623.002,533.005,"Pictures_Onset",558.004,"21","Salty",21,60,30,2,"no","down","Right",1,"FL","FF",3,"down",726,1,"Guest21"
12,0.428149998188019,0.491799980401993,-33.1043319702148,140.180160522461,44.1845016479492,315.993,2055.002,965.005,"Pictures_Onset",990.004,"21","Healthy",21,60,30,2,"no","down","Right",1,"FL","FF",3,"down",726,1,"Guest21"
13,0.374125003814697,0.498270869255066,-58.9454231262207,138.521667480469,43.5804138183594,248.999,1368.998,332.992,"Pictures_Onset",304,"21","Salty",21,60,30,4,"no","up","Left",1,"FF","FL",4,"up",575,1,"Guest21"
13,0.614074051380157,0.50445681810379,55.6933326721191,136.984313964844,43.020378112793,432.998,1768,731.994,"Pictures_Onset",703.002,"21","Healthy",21,60,30,4,"no","up","Left",1,"FF","FL",4,"up",575,1,"Guest21"
13,0.419547587633133,0.45502382516861,-37.2167854309082,149.471328735352,47.5669059753418,448.998,2267.008,1231.002,"Pictures_Onset",1202.01,"21","Salty",21,60,30,4,"no","up","Left",1,"FF","FL",4,"up",575,1,"Guest21"
14,0.641757547855377,0.528787910938263,68.9748611450195,130.826370239258,40.7803001403809,167.002,1592,548.992,"Pictures_Onset",527.002,"21","Salty",21,60,30,1,"no","up","Left",0,"FL","FF",4,"up",492,1,"Guest21"
15,0.688333332538605,0.549333333969116,91.28125,125.668746948242,38.9020843505859,116.007,1702.003,665.997,"Pictures_Onset",637.005,"21","Healthy",21,60,30,2,"no","down","Right",0,"FF","FL",4,"down",677,1,"Guest21"
15,0.641041696071625,0.523958325386047,68.663330078125,132.051666259766,41.2262496948242,117.005,1868.006,832,"Pictures_Onset",803.008,"21","Healthy",21,60,30,2,"no","down","Right",0,"FF","FL",4,"down",677,1,"Guest21"
15,0.38100004196167,0.49175551533699,-55.6617813110352,140.194442749023,44.1895599365234,232,2068.006,1032,"Pictures_Onset",1003.008,"21","Salty",21,60,30,2,"no","down","Right",0,"FF","FL",4,"down",677,1,"Guest21"
15,0.573814749717712,0.519574105739594,36.4755592346191,133.157409667969,41.6283340454102,282.995,2434.01,1398.004,"Pictures_Onset",1369.012,"21","Healthy",21,60,30,2,"no","down","Right",0,"FF","FL",4,"down",677,1,"Guest21"
16,0.645366668701172,0.556433320045471,70.7020034790039,123.782325744629,38.2159996032715,148.992,1496,466.01,"Pictures_Onset",431.002,"21","Salty",21,60,30,3,"no","down","Right",1,"FL","FF",4,"down",755,1,"Guest21"
16,0.616761863231659,0.529880881309509,57.0623817443848,130.56071472168,40.6821403503418,215.987,1679.002,649.012,"Pictures_Onset",614.004,"21","Salty",21,60,30,3,"no","down","Right",1,"FL","FF",4,"down",755,1,"Guest21"
16,0.363166660070419,0.514472186565399,-64.2480545043945,134.429443359375,42.0905570983887,183.001,1961.997,932.007,"Pictures_Onset",896.999,"21","Healthy",21,60,30,3,"no","down","Right",1,"FL","FF",4,"down",755,1,"Guest21"
16,0.573561370372772,0.526535034179688,36.3749961853027,131.386840820312,40.9842910766602,615.001,2294.989,1264.999,"Pictures_Onset",1229.991,"21","Salty",21,60,30,3,"no","down","Right",1,"FL","FF",4,"down",755,1,"Guest21"
17,0.397416681051254,0.503944456577301,-47.8191719055176,137.118881225586,43.0708351135254,183.001,1367.002,333.005,"Pictures_Onset",302.004,"21","Salty",21,60,30,1,"no","up","Left",1,"FF","FL",5,"up",600,1,"Guest21"
17,0.625578999519348,0.531368494033813,61.2475471496582,130.191223144531,40.5482482910156,299.994,1684.006,650.009,"Pictures_Onset",619.008,"21","Healthy",21,60,30,1,"no","up","Left",1,"FF","FL",5,"up",600,1,"Guest21"
17,0.617966651916504,0.500677764415741,57.5874404907227,137.950012207031,43.373218536377,482.995,2016,982.003,"Pictures_Onset",951.002,"21","Healthy",21,60,30,1,"no","up","Left",1,"FF","FL",5,"up",600,1,"Guest21"
17,0.551259279251099,0.491691321134567,25.6999969482422,140.215545654297,44.1970405578613,432.998,2549.005,1515.008,"Pictures_Onset",1484.007,"21","Healthy",21,60,30,1,"no","up","Left",1,"FF","FL",5,"up",600,1,"Guest21"
18,0.628179490566254,0.512717962265015,62.485897064209,134.894104003906,42.2597427368164,201.012,2136.998,1114.995,"Pictures_Onset",1072,"21","Salty",21,60,30,2,"no","up","Left",0,"FL","FF",5,"up",624,1,"Guest21"
18,0.380848497152328,0.499469667673111,-55.7513580322266,138.264541625977,43.4875793457031,348.992,2404.006,1382.003,"Pictures_Onset",1339.008,"21","Healthy",21,60,30,2,"no","up","Left",0,"FL","FF",5,"up",624,1,"Guest21"
18,0.611766636371613,0.525833368301392,54.6340026855469,131.595336914062,41.0589981079102,149.991,2836.006,1814.003,"Pictures_Onset",1771.008,"21","Salty",21,60,30,2,"no","up","Left",0,"FL","FF",5,"up",624,1,"Guest21"
20,0.372481495141983,0.508962988853455,-59.6907348632812,135.805541992188,42.5937042236328,133.005,1597.99,566.003,"Pictures_Onset",532.992,"21","Healthy",21,60,30,4,"no","down","Right",1,"FL","FF",5,"down",693,1,"Guest21"
20,0.60441666841507,0.52691662311554,51.1404190063477,131.30583190918,40.9529190063477,117.005,1796.992,765.005,"Pictures_Onset",731.994,"21","Salty",21,60,30,4,"no","down","Right",1,"FL","FF",5,"down",693,1,"Guest21"
21,0.379974365234375,0.481820464134216,-56.2225608825684,142.725128173828,45.1112823486328,200,1458.995,432.998,"Pictures_Onset",393.997,"21","Salty",21,60,30,2,"no","down","Left",1,"FF","FL",6,"down",546,1,"Guest21"
21,0.670933365821838,0.499366670846939,82.9223327636719,138.238662719727,43.4753303527832,149.005,1874.995,848.998,"Pictures_Onset",809.997,"21","Healthy",21,60,30,2,"no","down","Left",1,"FF","FL",6,"down",546,1,"Guest21"
21,0.623101413249969,0.484304428100586,60.0473937988281,142.070709228516,44.8720321655273,366.003,2074.995,1048.998,"Pictures_Onset",1009.997,"21","Healthy",21,60,30,2,"no","down","Left",1,"FF","FL",6,"down",546,1,"Guest21"
22,0.606484830379486,0.521727323532104,52.0966682434082,132.580902099609,41.4178810119629,166.004,1632.998,599.001,"Pictures_Onset",568,"21","Salty",21,60,30,3,"no","down","Left",0,"FL","FF",6,"down",513,1,"Guest21"
22,0.357350885868073,0.499491184949875,-66.9705200195312,138.223678588867,43.4715805053711,299.008,1882.995,848.998,"Pictures_Onset",817.997,"21","Healthy",21,60,30,3,"no","down","Left",0,"FL","FF",6,"down",513,1,"Guest21"
22,0.564481496810913,0.522444486618042,31.994815826416,132.445556640625,41.3681488037109,132.992,2349.005,1315.008,"Pictures_Onset",1284.007,"21","Salty",21,60,30,3,"no","down","Left",0,"FL","FF",6,"down",513,1,"Guest21"
22,0.558069050312042,0.53289657831192,28.970573425293,129.812194824219,40.4109230041504,465.997,2514.995,1480.998,"Pictures_Onset",1449.997,"21","Salty",21,60,30,3,"no","down","Left",0,"FL","FF",6,"down",513,1,"Guest21"
23,0.384877234697342,0.489824593067169,-53.8064880371094,140.652801513672,44.3563117980957,300.007,1266.995,216,"Pictures_Onset",201.997,"21","Salty",21,60,30,4,"no","up","Right",0,"FF","FL",6,"up",404,1,"Guest21"
23,0.607805550098419,0.490444421768188,52.8011131286621,140.530563354492,44.3122215270996,183.002,1716.992,665.997,"Pictures_Onset",651.994,"21","Healthy",21,60,30,4,"no","up","Right",0,"FF","FL",6,"up",404,1,"Guest21"
23,0.643333375453949,0.486848443746567,69.6972732543945,141.407577514648,44.6309127807617,166.003,2065.997,1015.002,"Pictures_Onset",1000.999,"21","Healthy",21,60,30,4,"no","up","Right",0,"FF","FL",6,"up",404,1,"Guest21"
23,0.433452367782593,0.50345242023468,-30.6026191711426,137.240478515625,43.1152381896973,216,2298.995,1248,"Pictures_Onset",1233.997,"21","Salty",21,60,30,4,"no","up","Right",0,"FF","FL",6,"up",404,1,"Guest21"
23,0.432987660169601,0.511654317378998,-30.7891387939453,135.155059814453,42.3560485839844,432,2548.992,1497.997,"Pictures_Onset",1483.994,"21","Salty",21,60,30,4,"no","up","Right",0,"FF","FL",6,"up",404,1,"Guest21"
24,0.384066671133041,0.495555579662323,-54.1802253723145,139.206451416016,43.8295555114746,232.998,1431.002,400,"Pictures_Onset",366.004,"21","Healthy",21,60,30,1,"no","up","Right",1,"FL","FF",6,"up",500,1,"Guest21"
24,0.631291627883911,0.522291660308838,64.0325012207031,132.450408935547,41.3716697692871,117.004,1795.994,764.992,"Pictures_Onset",730.996,"21","Salty",21,60,30,1,"no","up","Right",1,"FL","FF",6,"up",500,1,"Guest21"
24,0.62883335351944,0.518619060516357,62.810474395752,133.383331298828,41.7104759216309,216.998,1945.997,914.995,"Pictures_Onset",880.999,"21","Salty",21,60,30,1,"no","up","Right",1,"FL","FF",6,"up",500,1,"Guest21"
25,0.373416662216187,0.516958355903625,-59.2325019836426,133.842498779297,41.8779182434082,116.007,1346.995,316.992,"Pictures_Onset",281.997,"21","Salty",21,60,30,3,"no","down","Left",1,"FF","FL",7,"down",738,1,"Guest21"
25,0.604861080646515,0.520305514335632,51.3223686218262,132.968338012695,41.5597190856934,383.001,1613.005,583.002,"Pictures_Onset",548.007,"21","Healthy",21,60,30,3,"no","down","Left",1,"FF","FL",7,"down",738,1,"Guest21"
26,0.368117690086365,0.502019584178925,-61.8835220336914,137.609786987305,43.2484283447266,547.994,1522.995,500.006,"Pictures_Onset",457.997,"21","Healthy",21,60,30,4,"no","down","Left",0,"FL","FF",7,"down",500,1,"Guest21"
26,0.414222210645676,0.484255582094193,-39.7859954833984,142.08366394043,44.8774452209473,481.997,2437.99,1415.001,"Pictures_Onset",1372.992,"21","Healthy",21,60,30,4,"no","down","Left",0,"FL","FF",7,"down",500,1,"Guest21"
27,0.667555570602417,0.536073982715607,81.3988952636719,128.96630859375,40.1033325195312,132.992,1489.997,465.997,"Pictures_Onset",424.999,"21","Healthy",21,60,30,1,"no","up","Right",0,"FF","FL",7,"up",626,1,"Guest21"
27,0.636472284793854,0.510805547237396,66.4427719116211,135.347518920898,42.4261131286621,184,1656,632,"Pictures_Onset",591.002,"21","Healthy",21,60,30,1,"no","up","Right",0,"FF","FL",7,"up",626,1,"Guest21"
28,0.373717963695526,0.498820453882217,-59.0997467041016,138.400772094727,43.5366668701172,200,1346.995,248.998,"Pictures_Onset",281.997,"21","Healthy",21,60,30,2,"no","up","Right",1,"FL","FF",7,"up",666,1,"Guest21"
28,0.60524445772171,0.531133353710175,51.5364456176758,130.223770141602,40.5606689453125,233.997,1696,598.003,"Pictures_Onset",631.002,"21","Salty",21,60,30,2,"no","up","Right",1,"FL","FF",7,"up",666,1,"Guest21"
28,0.631083309650421,0.495555609464645,63.8791656494141,139.228057861328,43.8388862609863,183.002,1962.995,864.998,"Pictures_Onset",897.997,"21","Salty",21,60,30,2,"no","up","Right",1,"FL","FF",7,"up",666,1,"Guest21"
28,0.632481455802917,0.492740750312805,64.5274047851562,139.909255981445,44.0862922668457,133.005,2178.995,1080.998,"Pictures_Onset",1113.997,"21","Salty",21,60,30,2,"no","up","Right",1,"FL","FF",7,"up",666,1,"Guest21"
28,0.432037025690079,0.463333338499069,-31.3066673278809,147.372604370117,46.8025970458984,133.005,2844.992,1746.995,"Pictures_Onset",1779.994,"21","Healthy",21,60,30,2,"no","up","Right",1,"FL","FF",7,"up",666,1,"Guest21"
29,0.65627783536911,0.494925975799561,75.8798217773438,139.421844482422,43.9090728759766,282.995,1760,731.994,"Pictures_Onset",695.002,"21","Healthy",21,60,30,4,"no","down","Left",1,"FF","FL",8,"down",599,1,"Guest21"
29,0.412444472312927,0.523269772529602,-40.6219062805176,132.19189453125,41.2763481140137,331.994,2260.006,1232,"Pictures_Onset",1195.008,"21","Salty",21,60,30,4,"no","down","Left",1,"FF","FL",8,"down",599,1,"Guest21"
29,0.446412712335587,0.469476252794266,-24.3980979919434,145.822387695312,46.2376174926758,332.007,2642.995,1614.989,"Pictures_Onset",1577.997,"21","Salty",21,60,30,4,"no","down","Left",1,"FF","FL",8,"down",599,1,"Guest21"
30,0.360647052526474,0.499588251113892,-65.4305877685547,138.190780639648,43.4600028991699,267.008,1517.99,432,"Pictures_Onset",452.992,"21","Healthy",21,60,30,1,"no","down","Left",0,"FL","FF",8,"down",437,1,"Guest21"
30,0.627699971199036,0.527900040149689,62.2693290710449,131.082336425781,40.8726615905762,150.003,2033.997,948.007,"Pictures_Onset",968.999,"21","Salty",21,60,30,1,"no","down","Left",0,"FL","FF",8,"down",437,1,"Guest21"
30,0.36903703212738,0.510296285152435,-61.4162940979004,135.523696899414,42.4892578125,132.992,2233.997,1148.007,"Pictures_Onset",1168.999,"21","Healthy",21,60,30,1,"no","down","Left",0,"FL","FF",8,"down",437,1,"Guest21"
30,0.364393919706345,0.501394033432007,-63.5660629272461,137.745468139648,43.2993927001953,167.002,2400,1314.01,"Pictures_Onset",1335.002,"21","Healthy",21,60,30,1,"no","down","Left",0,"FL","FF",8,"down",437,1,"Guest21"
31,0.645022213459015,0.525666773319244,70.5348892211914,131.612884521484,41.0655555725098,232.998,1722.01,616,"Pictures_Onset",657.012,"21","Healthy",21,60,30,2,"no","up","Right",0,"FF","FL",8,"up",797,1,"Guest21"
32,0.376761883497238,0.526785731315613,-57.6809501647949,131.299530029297,40.9514274597168,216,1354.01,316.007,"Pictures_Onset",289.012,"21","Healthy",21,60,30,3,"no","up","Right",1,"FL","FF",8,"up",603,1,"Guest21"
32,0.633238017559052,0.541404843330383,64.8021392822266,127.635238647461,39.6190452575684,216,1653.005,615.002,"Pictures_Onset",588.007,"21","Salty",21,60,30,3,"no","up","Right",1,"FL","FF",8,"up",603,1,"Guest21"
32,0.358306616544724,0.50274670124054,-66.4737319946289,137.410385131836,43.1766738891602,400,2069.005,1031.002,"Pictures_Onset",1004.007,"21","Healthy",21,60,30,3,"no","up","Right",1,"FL","FF",8,"up",603,1,"Guest21"
32,0.558142840862274,0.526999950408936,28.9806365966797,131.266677856445,40.9398384094238,333.005,2651.008,1613.005,"Pictures_Onset",1586.01,"21","Salty",21,60,30,3,"no","up","Right",1,"FL","FF",8,"up",603,1,"Guest21"
33,0.662962973117828,0.512148141860962,79.0762939453125,134.987030029297,42.2929649353027,133.005,1466.995,432.998,"Pictures_Onset",401.997,"21","Healthy",21,60,30,1,"no","down","Left",1,"FF","FL",9,"down",579,1,"Guest21"
33,0.629205167293549,0.498974353075027,62.8953857421875,138.385391235352,43.5305137634277,200,1632.998,599.001,"Pictures_Onset",568,"21","Healthy",21,60,30,1,"no","down","Left",1,"FF","FL",9,"down",579,1,"Guest21"
33,0.385231852531433,0.490260869264603,-53.625072479248,140.567230224609,44.3253631591797,366.003,1915.994,881.997,"Pictures_Onset",850.996,"21","Salty",21,60,30,1,"no","down","Left",1,"FF","FL",9,"down",579,1,"Guest21"
33,0.592518448829651,0.51925927400589,45.4370384216309,133.231109619141,41.6533355712891,283.008,2348.992,1314.995,"Pictures_Onset",1283.994,"21","Healthy",21,60,30,1,"no","down","Left",1,"FF","FL",9,"down",579,1,"Guest21"
34,0.640179514884949,0.51074355840683,68.1812896728516,135.378723144531,42.4356422424316,200.998,1608,581.005,"Pictures_Onset",543.002,"21","Salty",21,60,30,2,"no","down","Left",0,"FL","FF",9,"down",803,1,"Guest21"
34,0.562045454978943,0.510484874248505,30.9092426300049,135.463165283203,42.468334197998,349.005,1874.995,848,"Pictures_Onset",809.997,"21","Salty",21,60,30,2,"no","down","Left",0,"FL","FF",9,"down",803,1,"Guest21"
36,0.375607818365097,0.489607930183411,-58.2590141296387,140.734725952148,44.3858871459961,266.995,1409.997,382.003,"Pictures_Onset",344.999,"21","Healthy",21,60,30,4,"no","up","Right",1,"FL","FF",9,"up",452,1,"Guest21"
36,0.614156901836395,0.50582355260849,55.7729415893555,136.625106811523,42.8899993896484,264.999,1826.995,799.001,"Pictures_Onset",761.997,"21","Salty",21,60,30,4,"no","up","Right",1,"FL","FF",9,"up",452,1,"Guest21"
36,0.394933342933655,0.480566591024399,-48.9788360595703,143.015670776367,45.216667175293,315.993,2359.002,1331.008,"Pictures_Onset",1294.004,"21","Healthy",21,60,30,4,"no","up","Right",1,"FL","FF",9,"up",452,1,"Guest21"
37,0.656305611133575,0.527138888835907,75.9269409179688,131.231674194336,40.928050994873,183.001,1593.997,565.005,"Pictures_Onset",528.999,"21","Healthy",21,60,30,2,"no","down","Left",1,"FF","FL",10,"down",660,1,"Guest21"
37,0.590181827545166,0.509969651699066,44.3269691467285,135.560928344727,42.5036354064941,166.003,1843.994,815.002,"Pictures_Onset",778.996,"21","Healthy",21,60,30,2,"no","down","Left",1,"FF","FL",10,"down",660,1,"Guest21"
37,0.579666793346405,0.515788853168488,39.2298927307129,134.115447998047,41.9764442443848,481.997,2442.995,1414.003,"Pictures_Onset",1377.997,"21","Healthy",21,60,30,2,"no","down","Left",1,"FF","FL",10,"down",660,1,"Guest21"
38,0.367955535650253,0.517266690731049,-61.9484443664551,133.730453491211,41.8368911743164,232.998,1468.992,448.998,"Pictures_Onset",403.994,"21","Healthy",21,60,30,3,"no","down","Left",0,"FL","FF",10,"down",553,1,"Guest21"
38,0.604666709899902,0.525555551052094,51.2183380126953,131.657211303711,41.0835113525391,282.995,1851.994,832,"Pictures_Onset",786.996,"21","Salty",21,60,30,3,"no","down","Left",0,"FL","FF",10,"down",553,1,"Guest21"
38,0.601794898509979,0.53276926279068,49.8917999267578,129.827438354492,40.4161567687988,199.002,2168.998,1149.004,"Pictures_Onset",1104,"21","Salty",21,60,30,3,"no","down","Left",0,"FL","FF",10,"down",553,1,"Guest21"
39,0.367666661739349,0.493743568658829,-62.0376930236816,139.686920166016,44.005126953125,200,1303.002,281.997,"Pictures_Onset",238.004,"21","Salty",21,60,30,4,"no","up","Right",0,"FF","FL",10,"up",460,1,"Guest21"
40,0.374666661024094,0.496814846992493,-58.6724052429199,138.918151855469,43.7255592346191,281.997,1466.995,432.998,"Pictures_Onset",401.997,"21","Healthy",21,60,30,1,"no","up","Right",1,"FL","FF",10,"up",764,1,"Guest21"
41,0.451107174158096,0.514821529388428,-22.1604747772217,134.365127563477,42.0675010681152,449.996,1031.002,0,"Pictures_Onset",-33.9960000000001,"21","Sugary",21,60,30,3,"no","up","Left",1,"FS","FL",11,"up",683,1,"Guest21"
41,0.6136873960495,0.509020745754242,55.4735450744629,135.831237792969,42.6006278991699,248.998,1729.997,698.995,"Pictures_Onset",664.999,"21","Healthy",21,60,30,3,"no","up","Left",1,"FS","FL",11,"up",683,1,"Guest21"
41,0.591679930686951,0.508346676826477,45.0053329467773,136.00080871582,42.6634712219238,400,2477.99,1446.988,"Pictures_Onset",1412.992,"21","Healthy",21,60,30,3,"no","up","Left",1,"FS","FL",11,"up",683,1,"Guest21"
42,0.383714288473129,0.492761880159378,-54.4035720825195,139.946899414062,44.1002388000488,217.012,1456.998,432,"Pictures_Onset",392,"21","Healthy",21,60,30,4,"no","up","Left",0,"FL","FS",11,"up",549,1,"Guest21"
42,0.610710203647614,0.511826038360596,54.1401519775391,135.153472900391,42.354061126709,367.001,1823.002,798.004,"Pictures_Onset",758.004,"21","Sugary",21,60,30,4,"no","up","Left",0,"FL","FS",11,"up",549,1,"Guest21"
42,0.450653314590454,0.546853303909302,-22.4272003173828,126.259078979492,39.1171989440918,399.002,2272.998,1248,"Pictures_Onset",1208,"21","Healthy",21,60,30,4,"no","up","Left",0,"FL","FS",11,"up",549,1,"Guest21"
42,0.429416626691818,0.496687471866608,-32.560001373291,138.941864013672,43.7329139709473,248.998,2722.01,1697.012,"Pictures_Onset",1657.012,"21","Healthy",21,60,30,4,"no","up","Left",0,"FL","FS",11,"up",549,1,"Guest21"
43,0.626333355903625,0.520633339881897,61.5763359069824,132.917663574219,41.541332244873,150.003,1572.992,548.992,"Pictures_Onset",507.994,"21","Healthy",21,60,30,1,"no","down","Right",0,"FS","FL",11,"down",512,1,"Guest21"
43,0.371666729450226,0.485351830720901,-60.0803680419922,141.842224121094,44.7894439697266,283.993,1839.002,815.002,"Pictures_Onset",774.004,"21","Sugary",21,60,30,1,"no","down","Right",0,"FS","FL",11,"down",512,1,"Guest21"
43,0.579351842403412,0.568833291530609,39.1742553710938,120.692962646484,37.0927772521973,282.995,2422.003,1398.003,"Pictures_Onset",1357.005,"21","Healthy",21,60,30,1,"no","down","Right",0,"FS","FL",11,"down",512,1,"Guest21"
44,0.413166671991348,0.504861056804657,-40.3608322143555,136.823318481445,42.9622192382812,182.003,1470.989,449.997,"Pictures_Onset",405.991,"21","Healthy",21,60,30,2,"no","down","Right",1,"FL","FS",11,"down",626,1,"Guest21"
44,0.6639444231987,0.507749974727631,79.5519409179688,136.141952514648,42.715274810791,181.99,1904,883.008,"Pictures_Onset",839.002,"21","Sugary",21,60,30,2,"no","down","Right",1,"FL","FS",11,"down",626,1,"Guest21"
44,0.443549007177353,0.490725517272949,-25.8147048950195,140.446884155273,44.2801933288574,264.999,2152.998,1132.006,"Pictures_Onset",1088,"21","Healthy",21,60,30,2,"no","down","Right",1,"FL","FS",11,"down",626,1,"Guest21"
45,0.352733343839645,0.504066586494446,-69.1860046386719,137.115661621094,43.0686645507812,149.005,1510.003,482.995,"Pictures_Onset",445.005,"21","Sugary",21,60,30,4,"no","up","Left",1,"FS","FL",12,"up",483,1,"Guest21"
45,0.603814840316772,0.518444418907166,50.799259185791,133.442596435547,41.7307395935059,133.005,1726.003,698.995,"Pictures_Onset",661.005,"21","Healthy",21,60,30,4,"no","up","Left",1,"FS","FL",12,"up",483,1,"Guest21"
46,0.394846171140671,0.502717971801758,-49.0959014892578,137.429748535156,43.1835899353027,199.002,1504.998,483.993,"Pictures_Onset",440,"21","Healthy",21,60,30,1,"no","up","Left",0,"FL","FS",12,"up",485,1,"Guest21"
46,0.578333258628845,0.484316676855087,38.6978378295898,142.101654052734,44.884334564209,315.994,1854.003,832.998,"Pictures_Onset",789.005,"21","Sugary",21,60,30,1,"no","up","Left",0,"FL","FS",12,"up",485,1,"Guest21"
47,0.629208445549011,0.507666647434235,62.9854125976562,136.148330688477,42.7162475585938,249.997,1613.005,582.003,"Pictures_Onset",548.007,"21","Healthy",21,60,30,2,"no","down","Right",0,"FS","FL",12,"down",747,1,"Guest21"
48,0.595333337783813,0.507666707038879,46.8073348999023,136.164993286133,42.7229995727539,150.003,1835.994,815.002,"Pictures_Onset",770.996,"21","Sugary",21,60,30,3,"no","down","Right",1,"FL","FS",12,"down",772,1,"Guest21"
49,0.619199931621552,0.521288871765137,58.1751098632812,132.711563110352,41.4662208557129,233.996,1578.01,549.005,"Pictures_Onset",513.012,"21","Healthy",21,60,30,1,"no","up","Left",1,"FS","FL",13,"up",667,1,"Guest21"
49,0.65148138999939,0.512777805328369,73.6059265136719,134.896301269531,42.2622222900391,133.005,1861.005,832,"Pictures_Onset",796.007,"21","Healthy",21,60,30,1,"no","up","Left",1,"FS","FL",13,"up",667,1,"Guest21"
49,0.393960803747177,0.491666615009308,-49.493724822998,140.252136230469,44.210391998291,265.997,2061.005,1032,"Pictures_Onset",996.007,"21","Sugary",21,60,30,1,"no","up","Left",1,"FS","FL",13,"up",667,1,"Guest21"
49,0.554979085922241,0.507020771503448,27.477710723877,136.332504272461,42.7843704223633,249.996,2410.01,1381.005,"Pictures_Onset",1345.012,"21","Healthy",21,60,30,1,"no","up","Left",1,"FS","FL",13,"up",667,1,"Guest21"
50,0.39685183763504,0.503185153007507,-48.0188903808594,137.315551757812,43.1425895690918,133.005,1292.006,200,"Pictures_Onset",227.008,"21","Healthy",21,60,30,2,"no","up","Left",0,"FL","FS",13,"up",595,1,"Guest21"
50,0.61370587348938,0.525411784648895,55.583137512207,131.676651000977,41.0898094177246,267.008,1607.002,514.996,"Pictures_Onset",542.004,"21","Sugary",21,60,30,2,"no","up","Left",0,"FL","FS",13,"up",595,1,"Guest21"
51,0.595666646957397,0.522269785404205,46.988094329834,132.469680786133,41.3787307739258,332.007,1594.995,567.001,"Pictures_Onset",529.997,"21","Healthy",21,60,30,3,"no","down","Right",0,"FS","FL",13,"up",545,0,"Guest21"
52,0.410777717828751,0.492277830839157,-41.4922256469727,140.052947998047,44.1379585266113,282.01,1432.998,349.99,"Pictures_Onset",368,"21","Healthy",21,60,30,4,"no","down","Right",1,"FL","FS",13,"down",628,1,"Guest21"
53,0.630642890930176,0.518309533596039,63.6792869567871,133.503555297852,41.755241394043,216.998,1684.992,599.002,"Pictures_Onset",619.994,"21","Healthy",21,60,30,2,"no","up","Left",1,"FS","FL",14,"up",740,1,"Guest21"
53,0.405846178531647,0.485192239284515,-43.8176918029785,141.831024169922,44.7852554321289,416.998,1984,898.01,"Pictures_Onset",919.002,"21","Sugary",21,60,30,2,"no","up","Left",1,"FS","FL",14,"up",740,1,"Guest21"
53,0.581666588783264,0.508151531219482,40.2648506164551,136.038192749023,42.6775779724121,166.003,2466.995,1381.005,"Pictures_Onset",1401.997,"21","Healthy",21,60,30,2,"no","up","Left",1,"FS","FL",14,"up",740,1,"Guest21"
53,0.577129602432251,0.505685150623322,38.0962944030762,136.65998840332,42.901668548584,282.995,2666.995,1581.005,"Pictures_Onset",1601.997,"21","Healthy",21,60,30,2,"no","up","Left",1,"FS","FL",14,"up",740,1,"Guest21"
54,0.592181742191315,0.520469665527344,45.2472724914551,132.937881469727,41.5483322143555,348.992,1594.01,566.004,"Pictures_Onset",529.012,"21","Sugary",21,60,30,3,"no","up","Left",0,"FL","FS",14,"up",779,1,"Guest21"
54,0.373625010251999,0.513000011444092,-59.2220764160156,134.860412597656,42.2487525939941,381.99,2010.01,982.004,"Pictures_Onset",945.012,"21","Healthy",21,60,30,3,"no","up","Left",0,"FL","FS",14,"up",779,1,"Guest21"
54,0.63842099905014,0.530210494995117,67.3629837036133,130.475448608398,40.6529846191406,299.008,2559.002,1530.996,"Pictures_Onset",1494.004,"21","Sugary",21,60,30,3,"no","up","Left",0,"FL","FS",14,"up",779,1,"Guest21"
55,0.38017550110817,0.499771922826767,-56.0538597106934,138.160858154297,43.4487686157227,300.006,1283.994,265.997,"Pictures_Onset",218.996,"21","Sugary",21,60,30,4,"no","down","Right",0,"FS","FL",14,"down",667,1,"Guest21"
55,0.616933405399323,0.516155600547791,57.097339630127,134.003112792969,41.9355583190918,233.011,1716.992,698.995,"Pictures_Onset",651.994,"21","Healthy",21,60,30,4,"no","down","Right",0,"FS","FL",14,"down",667,1,"Guest21"
55,0.628458321094513,0.486125022172928,62.5741653442383,141.585830688477,44.6958312988281,115.326333333333,1983.66866666667,998.669666666667,"Pictures_Onset",951.668666666667,"21","Healthy",21,60,30,4,"no","down","Right",0,"FS","FL",14,"down",667,1,"Guest21"
55,0.628261923789978,0.478071421384811,62.557861328125,143.610946655273,45.4330978393555,101.004,2132.66066666667,1147.66166666667,"Pictures_Onset",1100.66066666667,"21","Healthy",21,60,30,4,"no","down","Right",0,"FS","FL",14,"down",667,1,"Guest21"
55,0.382750034332275,0.499197959899902,-54.7808303833008,138.309173583984,43.5029182434082,515.993,2465.997,1448,"Pictures_Onset",1400.999,"21","Sugary",21,60,30,4,"no","down","Right",0,"FS","FL",14,"down",667,1,"Guest21"
56,0.64941281080246,0.506920635700226,72.5938110351562,136.368255615234,42.7971458435059,333.005,1561.997,532.007,"Pictures_Onset",496.999,"21","Sugary",21,60,30,1,"no","down","Right",1,"FL","FS",14,"down",427,1,"Guest21"
56,0.443985432386398,0.459333389997482,-25.578987121582,148.354202270508,47.1589851379395,366.003,1993.997,964.007,"Pictures_Onset",928.999,"21","Healthy",21,60,30,1,"no","down","Right",1,"FL","FS",14,"down",427,1,"Guest21"
57,0.648363649845123,0.53318178653717,72.1166687011719,129.694549560547,40.3690948486328,166.003,1483.008,448,"Pictures_Onset",418.01,"21","Healthy",21,60,30,3,"no","up","Left",1,"FS","FL",15,"up",683,1,"Guest21"
57,0.614148139953613,0.51374077796936,55.8162994384766,134.668884277344,42.1781463623047,133.005,1683.008,648,"Pictures_Onset",618.01,"21","Healthy",21,60,30,3,"no","up","Left",1,"FS","FL",15,"up",683,1,"Guest21"
57,0.37645098567009,0.486333340406418,-57.8876571655273,141.552368164062,44.6833305358887,265.997,1883.008,848,"Pictures_Onset",818.01,"21","Sugary",21,60,30,3,"no","up","Left",1,"FS","FL",15,"up",683,1,"Guest21"
57,0.601555526256561,0.495361089706421,49.7569427490234,139.25666809082,43.8469429016113,183.002,2432,1396.992,"Pictures_Onset",1367.002,"21","Healthy",21,60,30,3,"no","up","Left",1,"FS","FL",15,"up",683,1,"Guest21"
57,0.598166644573212,0.502083361148834,48.1512489318848,137.564590454102,43.2324981689453,249.997,2648.013,1613.005,"Pictures_Onset",1583.015,"21","Healthy",21,60,30,3,"no","up","Left",1,"FS","FL",15,"up",683,1,"Guest21"
58,0.361722260713577,0.490129590034485,-64.9388885498047,140.597961425781,44.336296081543,283.008,1415.002,383.002,"Pictures_Onset",350.004,"21","Healthy",21,60,30,4,"no","up","Left",0,"FL","FS",15,"up",590,1,"Guest21"
58,0.59719055891037,0.491071432828903,47.6500015258789,140.351181030273,44.2464332580566,216,1848,816,"Pictures_Onset",783.002,"21","Sugary",21,60,30,4,"no","up","Left",0,"FL","FS",15,"up",590,1,"Guest21"
58,0.359825402498245,0.495476216077805,-65.7349243164062,139.246032714844,43.8431739807129,332.992,2147.008,1115.008,"Pictures_Onset",1082.01,"21","Healthy",21,60,30,4,"no","up","Left",0,"FL","FS",15,"up",590,1,"Guest21"
58,0.412571430206299,0.511619031429291,-40.6335678100586,135.154525756836,42.3547630310059,215.987,2530.01,1498.01,"Pictures_Onset",1465.012,"21","Healthy",21,60,30,4,"no","up","Left",0,"FL","FS",15,"up",590,1,"Guest21"
58,0.551636338233948,0.552393972873688,25.9221210479736,124.847579956055,38.6030311584473,166.003,2813.005,1781.005,"Pictures_Onset",1748.007,"21","Sugary",21,60,30,4,"no","up","Left",0,"FL","FS",15,"up",590,1,"Guest21"
59,0.371722191572189,0.481888920068741,-60.1416664123535,142.704452514648,45.1030578613281,181.99,1487.002,434.01,"Pictures_Onset",422.004,"21","Sugary",21,60,30,1,"no","down","Right",0,"FS","FL",15,"down",643,1,"Guest21"
60,0.628222167491913,0.51714813709259,62.4403686523438,133.806686401367,41.8637008666992,134.004,1864.998,797.99,"Pictures_Onset",800,"21","Sugary",21,60,30,2,"no","down","Right",1,"FL","FS",15,"down",668,1,"Guest21"
60,0.389529407024384,0.50025486946106,-51.6001892089844,137.999633789062,43.3911743164062,266.01,2064.998,997.99,"Pictures_Onset",1000,"21","Healthy",21,60,30,2,"no","down","Right",1,"FL","FS",15,"down",668,1,"Guest21"
61,0.421729147434235,0.507875025272369,-36.2264595031738,136.10417175293,42.7002105712891,248.998,1337.997,316.992,"Pictures_Onset",272.999,"21","Sugary",21,60,30,4,"no","down","Left",1,"FS","FL",16,"down",492,1,"Guest21"
62,0.450030297040939,0.497484892606735,-22.7524242401123,138.782424926758,43.6751556396484,166.003,1496,466.995,"Pictures_Onset",431.002,"21","Healthy",21,60,30,1,"no","down","Left",0,"FL","FS",16,"down",499,1,"Guest21"
62,0.389527767896652,0.495027780532837,-51.5986061096191,139.345840454102,43.8797187805176,184,1728,698.995,"Pictures_Onset",663.002,"21","Healthy",21,60,30,1,"no","down","Left",0,"FL","FS",16,"down",499,1,"Guest21"
62,0.575087606906891,0.521315813064575,37.0791244506836,132.712280273438,41.4668464660645,298.995,2061.005,1032,"Pictures_Onset",996.007,"21","Sugary",21,60,30,1,"no","down","Left",0,"FL","FS",16,"down",499,1,"Guest21"
63,0.644729197025299,0.513749957084656,70.3820877075195,134.639373779297,42.1685447692871,249.997,1666.995,632,"Pictures_Onset",601.997,"21","Healthy",21,60,30,2,"no","up","Right",0,"FS","FL",16,"up",594,1,"Guest21"
64,0.638416647911072,0.542499959468842,67.4004135131836,127.362503051758,39.5195846557617,117.005,1581.005,549.005,"Pictures_Onset",516.007,"21","Sugary",21,60,30,3,"no","up","Right",1,"FL","FS",16,"up",702,1,"Guest21"
64,0.377023756504059,0.494500011205673,-57.6452331542969,139.491424560547,43.9321403503418,216.999,1964.006,932.006,"Pictures_Onset",899.008,"21","Healthy",21,60,30,3,"no","up","Right",1,"FL","FS",16,"up",702,1,"Guest21"
64,0.598625004291534,0.536791682243347,48.3235473632812,128.80876159668,40.0450057983398,250.009,2247.002,1215.002,"Pictures_Onset",1182.004,"21","Sugary",21,60,30,3,"no","up","Right",1,"FL","FS",16,"up",702,1,"Guest21"
65,0.38141667842865,0.477312475442886,-55.4512557983398,143.84001159668,45.5164604187012,249.012,1397.99,298.995,"Pictures_Onset",332.992,"21","Sugary",21,60,30,1,"no","down","Left",1,"FS","FL",17,"down",642,1,"Guest21"
65,0.645512819290161,0.515435874462128,70.7746124267578,134.197692871094,42.0076904296875,199.001,1913.997,815.002,"Pictures_Onset",848.999,"21","Healthy",21,60,30,1,"no","down","Left",1,"FS","FL",17,"down",642,1,"Guest21"
65,0.409571409225464,0.470690459012985,-41.9840469360352,145.505706787109,46.122974395752,449.996,2179.994,1080.999,"Pictures_Onset",1114.996,"21","Sugary",21,60,30,1,"no","down","Left",1,"FS","FL",17,"down",642,1,"Guest21"
66,0.646285712718964,0.49873811006546,71.1016693115234,138.414047241211,43.540714263916,215.987,1527.002,499.008,"Pictures_Onset",462.004,"21","Sugary",21,60,30,2,"no","down","Left",0,"FL","FS",17,"down",556,1,"Guest21"
66,0.564769208431244,0.495794832706451,32.1615371704102,139.176162719727,43.8189697265625,199.002,1792.998,765.004,"Pictures_Onset",728,"21","Sugary",21,60,30,2,"no","down","Left",0,"FL","FS",17,"down",556,1,"Guest21"
66,0.450037002563477,0.501962900161743,-22.6700000762939,137.642959594727,43.2618560791016,132.006,2059.994,1032,"Pictures_Onset",994.996,"21","Healthy",21,60,30,2,"no","down","Left",0,"FL","FS",17,"down",556,1,"Guest21"
67,0.348352938890457,0.496803909540176,-71.2980346679688,138.918441772461,43.7256851196289,267.008,1279.002,167.002,"Pictures_Onset",214.004,"21","Sugary",21,60,30,3,"no","up","Right",0,"FS","FL",17,"up",460,1,"Guest21"
67,0.607848405838013,0.521515071392059,52.7189445495605,132.661651611328,41.4483375549316,350.003,1695.002,583.002,"Pictures_Onset",630.004,"21","Healthy",21,60,30,3,"no","up","Right",0,"FS","FL",17,"up",460,1,"Guest21"
67,0.631166636943817,0.507550001144409,63.9275016784668,136.182647705078,42.7291717529297,316.006,2079.002,967.002,"Pictures_Onset",1014.004,"21","Healthy",21,60,30,3,"no","up","Right",0,"FS","FL",17,"up",460,1,"Guest21"
67,0.433384627103806,0.503589749336243,-30.701286315918,137.181289672852,43.0938453674316,199.002,2644.006,1532.006,"Pictures_Onset",1579.008,"21","Sugary",21,60,30,3,"no","up","Right",0,"FS","FL",17,"up",460,1,"Guest21"
68,0.586499989032745,0.596416652202606,42.504997253418,113.739166259766,34.5612487792969,115.994,1051.008,0,"Pictures_Onset",-13.99,"21","Sugary",21,60,30,4,"no","up","Right",1,"FL","FS",17,"up",509,1,"Guest21"
68,0.388933300971985,0.528533279895782,-51.8906707763672,130.902893066406,40.8077735900879,234.01,1232.998,181.99,"Pictures_Onset",168,"21","Healthy",21,60,30,4,"no","up","Right",1,"FL","FS",17,"up",509,1,"Guest21"
68,0.651187479496002,0.50306248664856,73.4193801879883,137.321258544922,43.1435394287109,249.997,1533.005,481.997,"Pictures_Onset",468.007,"21","Sugary",21,60,30,4,"no","up","Right",1,"FL","FS",17,"up",509,1,"Guest21"
68,0.549277782440186,0.548916637897491,24.7669429779053,125.75,38.9327812194824,183.002,1832,780.992,"Pictures_Onset",767.002,"21","Sugary",21,60,30,4,"no","up","Right",1,"FL","FS",17,"up",509,1,"Guest21"
68,0.379491239786148,0.499999940395355,-56.4224586486816,138.107360839844,43.4301795959473,300.006,2497.997,1446.989,"Pictures_Onset",1432.999,"21","Healthy",21,60,30,4,"no","up","Right",1,"FL","FS",17,"up",509,1,"Guest21"
69,0.62541276216507,0.529333353042603,61.1266632080078,130.698104858398,40.7330131530762,333.005,1793.997,699.008,"Pictures_Onset",728.999,"21","Healthy",21,60,30,2,"no","down","Left",1,"FS","FL",18,"down",607,1,"Guest21"
69,0.407197028398514,0.502227246761322,-43.1657562255859,137.528503417969,43.2184906005859,350.004,2192.998,1098.009,"Pictures_Onset",1128,"21","Sugary",21,60,30,2,"no","down","Left",1,"FS","FL",18,"down",607,1,"Guest21"
70,0.348888874053955,0.515277802944183,-71.006950378418,134.263610839844,42.0313873291016,182.003,1332.992,298.995,"Pictures_Onset",267.994,"21","Healthy",21,60,30,3,"no","down","Left",0,"FL","FS",18,"down",578,1,"Guest21"
70,0.603000044822693,0.519619107246399,50.455867767334,133.138580322266,41.6209526062012,332.992,1648.998,615.001,"Pictures_Onset",584,"21","Sugary",21,60,30,3,"no","down","Left",0,"FL","FS",18,"down",578,1,"Guest21"
70,0.38545835018158,0.511104106903076,-53.515209197998,135.292709350586,42.4045829772949,249.997,2130.995,1096.998,"Pictures_Onset",1065.997,"21","Healthy",21,60,30,3,"no","down","Left",0,"FL","FS",18,"down",578,1,"Guest21"
71,0.382490158081055,0.506431341171265,-54.9125518798828,136.474502563477,42.8347015380859,266.995,1413.005,382.003,"Pictures_Onset",348.007,"21","Sugary",21,60,30,4,"no","up","Right",0,"FS","FL",18,"up",485,1,"Guest21"
71,0.61476469039917,0.51464706659317,56.0915718078613,134.453140258789,42.0990257263184,265.997,1813.005,782.003,"Pictures_Onset",748.007,"21","Healthy",21,60,30,4,"no","up","Right",0,"FS","FL",18,"up",485,1,"Guest21"
72,0.607403516769409,0.51129823923111,52.5277214050293,135.268768310547,42.3970184326172,299.993,1570.01,549.005,"Pictures_Onset",505.012,"21","Sugary",21,60,30,1,"no","up","Right",1,"FL","FS",18,"up",597,1,"Guest21"
72,0.445444464683533,0.493888825178146,-24.8514785766602,139.649505615234,43.9912376403809,432.998,1936,914.995,"Pictures_Onset",871.002,"21","Healthy",21,60,30,1,"no","up","Right",1,"FL","FS",18,"up",597,1,"Guest21"
72,0.624866664409637,0.558633327484131,60.8325080871582,123.293991088867,38.0376663208008,315.994,2452.006,1431.001,"Pictures_Onset",1387.008,"21","Sugary",21,60,30,1,"no","up","Right",1,"FL","FS",18,"up",597,1,"Guest21"
73,0.611948788166046,0.518897473812103,54.6992340087891,133.331268310547,41.6912841796875,199.001,1469.005,432.999,"Pictures_Onset",404.007,"21","Healthy",21,60,30,3,"no","down","Left",1,"FS","FL",19,"down",655,1,"Guest21"
73,0.366511166095734,0.483555614948273,-62.5744476318359,142.271545410156,44.9453315734863,232.998,1751.002,714.996,"Pictures_Onset",686.004,"21","Sugary",21,60,30,3,"no","down","Left",1,"FS","FL",19,"down",655,1,"Guest21"
73,0.562190473079681,0.493952333927155,30.9828548431396,139.620239257812,43.9821434020996,216,2284.006,1248,"Pictures_Onset",1219.008,"21","Healthy",21,60,30,3,"no","down","Left",1,"FS","FL",19,"down",655,1,"Guest21"
73,0.558380961418152,0.498452395200729,29.1501178741455,138.516311645508,43.5786972045898,448.999,2534.003,1497.997,"Pictures_Onset",1469.005,"21","Healthy",21,60,30,3,"no","down","Left",1,"FS","FL",19,"down",655,1,"Guest21"
74,0.651177704334259,0.511177837848663,73.455322265625,135.266448974609,42.394889831543,232.999,1670.003,649.997,"Pictures_Onset",605.005,"21","Sugary",21,60,30,4,"no","down","Left",0,"FL","FS",19,"down",439,1,"Guest21"
74,0.437766641378403,0.496033281087875,-28.5306644439697,139.078002929688,43.7836685180664,150.004,1968.998,948.992,"Pictures_Onset",904,"21","Healthy",21,60,30,4,"no","down","Left",0,"FL","FS",19,"down",439,1,"Guest21"
74,0.436249971389771,0.488916635513306,-29.2791690826416,140.898330688477,44.4474983215332,182.004,2152.998,1132.992,"Pictures_Onset",1088,"21","Healthy",21,60,30,4,"no","down","Left",0,"FL","FS",19,"down",439,1,"Guest21"
75,0.385976225137711,0.495357125997543,-53.3230972290039,139.238815307617,43.8421401977539,216,1304,283.008,"Pictures_Onset",239.002,"21","Sugary",21,60,30,1,"no","up","Right",0,"FS","FL",19,"up",666,1,"Guest21"
75,0.614083409309387,0.514166712760925,55.7397193908691,134.541122436523,42.132495880127,383.002,1669.99,648.998,"Pictures_Onset",604.992,"21","Healthy",21,60,30,1,"no","up","Right",0,"FS","FL",19,"up",666,1,"Guest21"
75,0.438055545091629,0.491666704416275,-28.3945846557617,140.17041015625,44.1808319091797,381.99,2103.002,1082.01,"Pictures_Onset",1038.004,"21","Sugary",21,60,30,1,"no","up","Right",0,"FS","FL",19,"up",666,1,"Guest21"
75,0.440368443727493,0.494368404150009,-27.247896194458,139.50666809082,43.9389457702637,300.007,2517.99,1496.998,"Pictures_Onset",1452.992,"21","Sugary",21,60,30,1,"no","up","Right",0,"FS","FL",19,"up",666,1,"Guest21"
76,0.372541666030884,0.485250025987625,-59.7033309936523,141.78498840332,44.7691650390625,115.994,1528,499.008,"Pictures_Onset",463.002,"21","Healthy",21,60,30,2,"no","up","Right",1,"FL","FS",19,"up",580,1,"Guest21"
76,0.60719758272171,0.505197584629059,52.4140701293945,136.81135559082,42.9584007263184,432,1794.995,766.003,"Pictures_Onset",729.997,"21","Sugary",21,60,30,2,"no","up","Right",1,"FL","FS",19,"up",580,1,"Guest21"
76,0.447291702032089,0.468041628599167,-24.0131969451904,146.166809082031,46.3638916015625,382.004,2293.99,1264.998,"Pictures_Onset",1228.992,"21","Healthy",21,60,30,2,"no","up","Right",1,"FL","FS",19,"up",580,1,"Guest21"
76,0.641777753829956,0.517962992191315,68.9585189819336,133.569259643555,41.7777824401855,133.005,2842.995,1814.003,"Pictures_Onset",1777.997,"21","Sugary",21,60,30,2,"no","up","Right",1,"FL","FS",19,"up",580,1,"Guest21"
77,0.382999986410141,0.501500010490417,-54.7345809936523,137.747085571289,43.2979164123535,115.993,1474.01,448.999,"Pictures_Onset",409.012,"21","Sugary",21,60,30,4,"no","down","Left",1,"FS","FL",20,"down",501,1,"Guest21"
77,0.657151520252228,0.523575723171234,76.292121887207,132.134841918945,41.256664276123,165.99,1674.01,648.999,"Pictures_Onset",609.012,"21","Healthy",21,60,30,4,"no","down","Left",1,"FS","FL",20,"down",501,1,"Guest21"
77,0.633595287799835,0.493928521871567,65.0447616577148,139.662857055664,43.9971389770508,216.998,1890.01,864.999,"Pictures_Onset",825.012,"21","Healthy",21,60,30,4,"no","down","Left",1,"FS","FL",20,"down",501,1,"Guest21"
78,0.560906648635864,0.513706743717194,30.3252029418945,134.661468505859,42.1764030456543,400,1026.01,0,"Pictures_Onset",-38.9880000000001,"21","Sugary",21,60,30,1,"no","down","Left",0,"FL","FS",20,"down",556,1,"Guest21"
78,0.360500037670135,0.492404788732529,-65.4652328491211,139.988357543945,44.1154747009277,216,1492.006,465.996,"Pictures_Onset",427.008,"21","Healthy",21,60,30,1,"no","down","Left",0,"FL","FS",20,"down",556,1,"Guest21"
78,0.649435937404633,0.526717901229858,72.614875793457,131.339996337891,40.9669227600098,200,1791.002,764.992,"Pictures_Onset",726.004,"21","Sugary",21,60,30,1,"no","down","Left",0,"FL","FS",20,"down",556,1,"Guest21"
78,0.567807018756866,0.504412174224854,33.6357917785645,136.981399536133,43.0206985473633,614.989,2041.011,1015.001,"Pictures_Onset",976.013,"21","Sugary",21,60,30,1,"no","down","Left",0,"FL","FS",20,"down",556,1,"Guest21"
79,0.610296308994293,0.512259244918823,53.8740730285645,135.004440307617,42.3014831542969,133.005,1593.997,566.003,"Pictures_Onset",528.999,"21","Healthy",21,60,30,2,"no","up","Right",0,"FS","FL",20,"up",700,1,"Guest21"
79,0.606642842292786,0.516523778438568,52.1185722351074,133.92024230957,41.9076194763184,216.998,1760,732.006,"Pictures_Onset",695.002,"21","Healthy",21,60,30,2,"no","up","Right",0,"FS","FL",20,"up",700,1,"Guest21"
79,0.378420293331146,0.480768114328384,-56.9273986816406,142.936370849609,45.1873931884766,366.003,2042.995,1015.001,"Pictures_Onset",977.997,"21","Sugary",21,60,30,2,"no","up","Right",0,"FS","FL",20,"up",700,1,"Guest21"
79,0.60241025686264,0.520205140113831,50.1715431213379,132.999862670898,41.5712738037109,416,2559.002,1531.008,"Pictures_Onset",1494.004,"21","Healthy",21,60,30,2,"no","up","Right",0,"FS","FL",20,"up",700,1,"Guest21"
80,0.370159983634949,0.512346684932709,-60.8818664550781,134.972427368164,42.2885284423828,399.001,1447.002,416,"Pictures_Onset",382.004,"21","Healthy",21,60,30,3,"no","up","Right",1,"FL","FS",20,"up",602,1,"Guest21"
80,0.369199991226196,0.514066576957703,-61.3736686706543,134.540664672852,42.1306686401367,149.99,1880,848.998,"Pictures_Onset",815.002,"21","Healthy",21,60,30,3,"no","up","Right",1,"FL","FS",20,"up",602,1,"Guest21"
80,0.629351854324341,0.530925929546356,63.0574150085449,130.266296386719,40.5749969482422,282.995,2096,1064.998,"Pictures_Onset",1031.002,"21","Sugary",21,60,30,3,"no","up","Right",1,"FL","FS",20,"up",602,1,"Guest21"
80,0.599214255809784,0.535809516906738,48.6349983215332,129.058563232422,40.1361885070801,216,2412.992,1381.99,"Pictures_Onset",1347.994,"21","Sugary",21,60,30,3,"no","up","Right",1,"FL","FS",20,"up",602,1,"Guest21"
80,0.399300009012222,0.509300053119659,-46.961669921875,135.741012573242,42.5686721801758,149.99,2712,1680.998,"Pictures_Onset",1647.002,"21","Healthy",21,60,30,3,"no","up","Right",1,"FL","FS",20,"up",602,1,"Guest21"
