"trial_id","sx","sy","px","py","pz","duration","timestamp","trial_onset","label","label_onset","subject_nr.x","AOI_visited","subject_nr.y","fat_craving","sugar_craving","Block","practice","Arrow_Direction","Arrow_Position","Congruence","Left_Picture","Right_Picture","Pair_Number","response","response_time","accuracy","part_ID"
1,0.606862723827362,0.519647061824799,51.869800567627,132.900009155273,41.5339202880859,266.01,1234.995,200,"Pictures_Onset",195.993,"15","Healthy",15,40,50,1,"no","up","Left",1,"FF","FL",1,"up",564,1,"Guest15"
1,0.375249981880188,0.487000048160553,-58.5502090454102,141.11604309082,44.5243721008301,249.997,1584,549.005,"Pictures_Onset",544.998,"15","Salty",15,40,50,1,"no","up","Left",1,"FF","FL",1,"up",564,1,"Guest15"
1,0.550940036773682,0.493854612112045,25.242223739624,139.398468017578,43.8991432189941,631.987,1917.005,882.01,"Pictures_Onset",878.003,"15","Healthy",15,40,50,1,"no","up","Left",1,"FF","FL",1,"up",564,1,"Guest15"
2,0.393578916788101,0.51666671037674,-49.8224601745605,133.659637451172,41.8114013671875,298.995,1246.003,217.011,"Pictures_Onset",207.001,"15","Healthy",15,40,50,2,"no","up","Left",0,"FL","FF",1,"up",619,1,"Guest15"
2,0.636233389377594,0.545699954032898,65.8918304443359,126.300155639648,39.1326637268066,316.006,1644.992,616,"Pictures_Onset",605.99,"15","Salty",15,40,50,2,"no","up","Left",0,"FL","FF",1,"up",619,1,"Guest15"
2,0.630041658878326,0.539124965667725,62.9283332824707,127.979995727539,39.7441673278809,116.007,1994.995,966.003,"Pictures_Onset",955.993,"15","Salty",15,40,50,2,"no","up","Left",0,"FL","FF",1,"up",619,1,"Guest15"
2,0.55007141828537,0.515714287757874,24.8578586578369,133.916427612305,41.9045219421387,216.999,2176.998,1148.006,"Pictures_Onset",1137.996,"15","Salty",15,40,50,2,"no","up","Left",0,"FL","FF",1,"up",619,1,"Guest15"
3,0.408599972724915,0.479866623878479,-42.6804428100586,142.928451538086,45.1833343505859,232,1280,199.002,"Pictures_Onset",240.998,"15","Salty",15,40,50,3,"no","down","Right",0,"FF","FL",1,"up",490,0,"Guest15"
3,0.6473508477211,0.494596540927887,71.2050857543945,139.219116210938,43.8359680175781,300.006,1611.994,530.996,"Pictures_Onset",572.992,"15","Healthy",15,40,50,3,"no","down","Right",0,"FF","FL",1,"up",490,0,"Guest15"
3,0.633037030696869,0.469592571258545,64.2540664672852,145.508895874023,46.1229629516602,133.005,1945.997,864.999,"Pictures_Onset",906.995,"15","Healthy",15,40,50,3,"no","down","Right",0,"FF","FL",1,"up",490,0,"Guest15"
3,0.430400133132935,0.46465927362442,-32.2319259643555,146.767028808594,46.5816345214844,731.994,2144.998,1064,"Pictures_Onset",1105.996,"15","Salty",15,40,50,3,"no","down","Right",0,"FF","FL",1,"up",490,0,"Guest15"
4,0.378848522901535,0.458515167236328,-56.9087867736816,148.295761108398,47.1384887695312,164.992,1312,284.006,"Pictures_Onset",272.998,"15","Healthy",15,40,50,4,"no","down","Right",1,"FL","FF",1,"up",460,0,"Guest15"
4,0.638433337211609,0.479966700077057,66.9466705322266,142.890350341797,45.1693344116211,149.99,1544,516.006,"Pictures_Onset",504.998,"15","Salty",15,40,50,4,"no","down","Right",1,"FL","FF",1,"up",460,0,"Guest15"
4,0.639844477176666,0.470266729593277,67.5845565795898,145.31689453125,46.0546684265137,232,2097.997,1070.003,"Pictures_Onset",1058.995,"15","Salty",15,40,50,4,"no","down","Right",1,"FL","FF",1,"up",460,0,"Guest15"
4,0.351375013589859,0.455972224473953,-69.8904190063477,148.929443359375,47.3697242736816,381.99,2447.002,1419.008,"Pictures_Onset",1408,"15","Healthy",15,40,50,4,"no","down","Right",1,"FL","FF",1,"up",460,0,"Guest15"
5,0.388060569763184,0.525333344936371,-52.3845443725586,131.501205444336,41.0260581970215,166.003,1245.005,216.999,"Pictures_Onset",206.003,"15","Salty",15,40,50,2,"no","up","Left",1,"FF","FL",2,"up",566,1,"Guest15"
5,0.625566720962524,0.541933357715607,60.8103332519531,127.286331176758,39.4913330078125,150.003,1494.003,465.997,"Pictures_Onset",455.001,"15","Healthy",15,40,50,2,"no","up","Left",1,"FF","FL",2,"up",566,1,"Guest15"
5,0.622607946395874,0.540941119194031,59.4429397583008,127.530586242676,39.5809783935547,265.997,1678.003,649.997,"Pictures_Onset",639.001,"15","Healthy",15,40,50,2,"no","up","Left",1,"FF","FL",2,"up",566,1,"Guest15"
5,0.630250036716461,0.517666637897491,63.0144386291504,133.405838012695,41.7183380126953,183.002,1976.998,948.992,"Pictures_Onset",937.996,"15","Healthy",15,40,50,2,"no","up","Left",1,"FF","FL",2,"up",566,1,"Guest15"
5,0.609380900859833,0.546095192432404,53.0935707092285,126.232154846191,39.1064338684082,216.999,2192.998,1164.992,"Pictures_Onset",1153.996,"15","Healthy",15,40,50,2,"no","up","Left",1,"FF","FL",2,"up",566,1,"Guest15"
5,0.375548988580704,0.51966667175293,-58.3778457641602,132.912170410156,41.5403900146484,266.996,2492.006,1464,"Pictures_Onset",1453.004,"15","Salty",15,40,50,2,"no","up","Left",1,"FF","FL",2,"up",566,1,"Guest15"
6,0.382782548666,0.471855044364929,-54.8670959472656,144.920593261719,45.9108657836914,366.003,1350.003,333.005,"Pictures_Onset",311.001,"15","Healthy",15,40,50,3,"no","up","Left",0,"FL","FF",2,"up",554,1,"Guest15"
6,0.639421045780182,0.499789476394653,67.4619293212891,137.881225585938,43.3477210998535,299.008,1898.995,881.997,"Pictures_Onset",859.993,"15","Salty",15,40,50,3,"no","up","Left",0,"FL","FF",2,"up",554,1,"Guest15"
6,0.635562539100647,0.506458342075348,65.5950012207031,136.21875,42.7427062988281,248.998,2232,1215.002,"Pictures_Onset",1192.998,"15","Salty",15,40,50,3,"no","up","Left",0,"FL","FF",2,"up",554,1,"Guest15"
6,0.550428569316864,0.485107153654099,24.9680938720703,141.59309387207,44.6984558105469,448.998,2531.008,1514.01,"Pictures_Onset",1492.006,"15","Salty",15,40,50,3,"no","up","Left",0,"FL","FF",2,"up",554,1,"Guest15"
7,0.642851829528809,0.49374070763588,69.0255584716797,139.439086914062,43.9153747558594,284.007,1226.995,199.001,"Pictures_Onset",187.993,"15","Healthy",15,40,50,4,"no","down","Right",0,"FF","FL",2,"down",548,1,"Guest15"
8,0.3931904733181,0.486285716295242,-49.9790534973145,141.264755249023,44.5785713195801,100.006,1291.994,266.996,"Pictures_Onset",252.992,"15","Healthy",15,40,50,1,"no","down","Right",1,"FL","FF",2,"down",550,1,"Guest15"
8,0.391333311796188,0.477939397096634,-50.9333343505859,143.423034667969,45.3651504516602,167.002,1424.998,400,"Pictures_Onset",385.996,"15","Healthy",15,40,50,1,"no","down","Right",1,"FL","FF",2,"down",550,1,"Guest15"
8,0.361259251832962,0.483333319425583,-65.2337036132812,142.081115722656,44.8759269714355,133.99,1624,599.002,"Pictures_Onset",584.998,"15","Healthy",15,40,50,1,"no","down","Right",1,"FL","FF",2,"down",550,1,"Guest15"
8,0.6342693567276,0.510884642601013,64.931282043457,135.078338623047,42.3275718688965,416,1840.998,816,"Pictures_Onset",801.996,"15","Salty",15,40,50,1,"no","down","Right",1,"FL","FF",2,"down",550,1,"Guest15"
8,0.392369776964188,0.459984421730042,-50.3841590881348,147.94694519043,47.0109367370605,516.006,2339.994,1314.996,"Pictures_Onset",1300.992,"15","Healthy",15,40,50,1,"no","down","Right",1,"FL","FF",2,"down",550,1,"Guest15"
9,0.397851824760437,0.491222232580185,-47.7440757751465,140.066299438477,44.1437072753906,132.992,1277.005,250.01,"Pictures_Onset",238.003,"15","Salty",15,40,50,3,"no","up","Left",1,"FF","FL",3,"up",643,1,"Guest15"
9,0.652777791023254,0.504111170768738,73.7831649780273,136.777786254883,42.9466705322266,332.992,1509.005,482.01,"Pictures_Onset",470.003,"15","Healthy",15,40,50,3,"no","up","Left",1,"FF","FL",3,"up",643,1,"Guest15"
9,0.62305748462677,0.485747098922729,59.5922966003418,141.429641723633,44.6394195556641,465.997,1992,965.005,"Pictures_Onset",952.998,"15","Healthy",15,40,50,3,"no","up","Left",1,"FF","FL",3,"up",643,1,"Guest15"
9,0.425374984741211,0.493874996900558,-34.6212463378906,139.387084960938,43.8950004577637,117.005,2824,1797.005,"Pictures_Onset",1784.998,"15","Salty",15,40,50,3,"no","up","Left",1,"FF","FL",3,"up",643,1,"Guest15"
10,0.388354152441025,0.462500005960464,-52.3068771362305,147.298965454102,46.7739601135254,249.997,1240,216,"Pictures_Onset",200.998,"15","Healthy",15,40,50,4,"no","up","Left",0,"FL","FF",3,"up",586,1,"Guest15"
10,0.403916656970978,0.468458354473114,-44.7924995422363,145.804580688477,46.2312507629395,117.005,1522.995,498.995,"Pictures_Onset",483.993,"15","Healthy",15,40,50,4,"no","up","Left",0,"FL","FF",3,"up",586,1,"Guest15"
10,0.636571407318115,0.48804759979248,66.0563507080078,140.866180419922,44.4338073730469,334.003,1721.997,697.997,"Pictures_Onset",682.995,"15","Salty",15,40,50,4,"no","up","Left",0,"FL","FF",3,"up",586,1,"Guest15"
10,0.647517621517181,0.464692980051041,71.2772827148438,146.728240966797,46.5680694580078,300.338333333334,2088.66666666667,1097.66466666667,"Pictures_Onset",1082.66266666667,"15","Salty",15,40,50,4,"no","up","Left",0,"FL","FF",3,"up",586,1,"Guest15"
10,0.377599895000458,0.422813296318054,-57.3922080993652,157.301284790039,50.4161338806152,399.002,2472,1448,"Pictures_Onset",1432.998,"15","Healthy",15,40,50,4,"no","up","Left",0,"FL","FF",3,"up",586,1,"Guest15"
11,0.41324445605278,0.48782217502594,-40.3931121826172,140.913101196289,44.4511070251465,232.998,1239.002,216.999,"Pictures_Onset",200,"15","Salty",15,40,50,1,"no","down","Right",0,"FF","FL",3,"down",674,1,"Guest15"
11,0.640470623970032,0.504117548465729,67.9311828613281,136.798828125,42.9531402587891,265.011,1555.994,533.991,"Pictures_Onset",516.992,"15","Healthy",15,40,50,1,"no","down","Right",0,"FF","FL",3,"down",674,1,"Guest15"
11,0.658820509910583,0.471051275730133,76.6738433837891,145.149505615234,45.9933395385742,200,1855.002,832.999,"Pictures_Onset",816,"15","Healthy",15,40,50,1,"no","down","Right",0,"FF","FL",3,"down",674,1,"Guest15"
11,0.677833318710327,0.491716623306274,85.6945037841797,139.894500732422,44.0805015563965,316.992,2087.002,1064.999,"Pictures_Onset",1048,"15","Healthy",15,40,50,1,"no","down","Right",0,"FF","FL",3,"down",674,1,"Guest15"
11,0.593561351299286,0.519578993320465,45.5540313720703,132.918060302734,41.5410461425781,298.995,2454.003,1432,"Pictures_Onset",1415.001,"15","Healthy",15,40,50,1,"no","down","Right",0,"FF","FL",3,"down",674,1,"Guest15"
11,0.359875023365021,0.488499999046326,-65.8166656494141,140.716247558594,44.3804206848145,116.006,2819.994,1797.991,"Pictures_Onset",1780.992,"15","Salty",15,40,50,1,"no","down","Right",0,"FF","FL",3,"down",674,1,"Guest15"
12,0.616473734378815,0.540877223014832,56.4529838562012,127.553863525391,39.5889511108398,299.993,1272.013,249.011,"Pictures_Onset",233.011,"15","Salty",15,40,50,2,"no","down","Right",1,"FL","FF",3,"down",627,1,"Guest15"
12,0.355439394712448,0.503787815570831,-67.9386367797852,136.849548339844,42.9718208312988,349.004,1655.002,632,"Pictures_Onset",616,"15","Healthy",15,40,50,2,"no","down","Right",1,"FL","FF",3,"down",627,1,"Guest15"
12,0.38425487279892,0.495313704013824,-54.2372550964355,139.047653198242,43.7715721130371,267.008,2054.003,1031.001,"Pictures_Onset",1015.001,"15","Healthy",15,40,50,2,"no","down","Right",1,"FL","FF",3,"down",627,1,"Guest15"
12,0.40615051984787,0.513838708400726,-43.7730140686035,134.363021850586,42.0670967102051,497.997,2421.005,1398.003,"Pictures_Onset",1382.003,"15","Healthy",15,40,50,2,"no","down","Right",1,"FL","FF",3,"down",627,1,"Guest15"
13,0.397012323141098,0.454666703939438,-48.1809844970703,149.277420043945,47.4944381713867,432.999,1318.003,282.995,"Pictures_Onset",279.001,"15","Salty",15,40,50,4,"no","up","Left",1,"FF","FL",4,"up",541,1,"Guest15"
13,0.62262225151062,0.480911105871201,59.3766593933105,142.64421081543,45.0819969177246,233.012,1816.998,781.99,"Pictures_Onset",777.996,"15","Healthy",15,40,50,4,"no","up","Left",1,"FF","FL",4,"up",541,1,"Guest15"
13,0.39882355928421,0.430235236883163,-47.2799949645996,155.441375732422,49.7400016784668,266.01,2232.998,1197.99,"Pictures_Onset",1193.996,"15","Salty",15,40,50,4,"no","up","Left",1,"FF","FL",4,"up",541,1,"Guest15"
13,0.38006666302681,0.425955593585968,-56.2293319702148,156.501998901367,50.125114440918,232,2533.005,1497.997,"Pictures_Onset",1494.003,"15","Salty",15,40,50,4,"no","up","Left",1,"FF","FL",4,"up",541,1,"Guest15"
14,0.391033351421356,0.490000009536743,-51.0830001831055,140.349334716797,44.2463340759277,149.004,1339.994,232.999,"Pictures_Onset",300.992,"15","Healthy",15,40,50,1,"no","up","Left",0,"FL","FF",4,"up",613,1,"Guest15"
14,0.629230797290802,0.512564122676849,62.5087127685547,134.660507202148,42.1743583679199,200,1555.994,448.999,"Pictures_Onset",516.992,"15","Salty",15,40,50,1,"no","up","Left",0,"FL","FF",4,"up",613,1,"Guest15"
14,0.628960907459259,0.502960801124573,62.4298095703125,137.068023681641,43.0521545410156,267.008,1788.992,681.997,"Pictures_Onset",749.99,"15","Salty",15,40,50,1,"no","up","Left",0,"FL","FF",4,"up",613,1,"Guest15"
14,0.597787916660309,0.545939385890961,47.5678825378418,126.273040771484,39.1224250793457,167.002,2088,981.005,"Pictures_Onset",1048.998,"15","Salty",15,40,50,1,"no","up","Left",0,"FL","FF",4,"up",613,1,"Guest15"
14,0.584424257278442,0.54930305480957,41.2406044006348,125.433029174805,38.8181800842285,167.002,2288,1181.005,"Pictures_Onset",1248.998,"15","Salty",15,40,50,1,"no","up","Left",0,"FL","FF",4,"up",613,1,"Guest15"
14,0.392700046300888,0.476326704025269,-50.2291297912598,143.794387817383,45.4996032714844,399.002,2520.998,1414.003,"Pictures_Onset",1481.996,"15","Healthy",15,40,50,1,"no","up","Left",0,"FL","FF",4,"up",613,1,"Guest15"
15,0.374895870685577,0.527750015258789,-58.6195831298828,130.823532104492,40.778751373291,249.011,1370.995,349.99,"Pictures_Onset",331.993,"15","Salty",15,40,50,2,"no","down","Right",0,"FF","FL",4,"down",648,1,"Guest15"
15,0.364370346069336,0.48370373249054,-63.7470436096191,141.960739135742,44.8325958251953,133.991,1686.003,664.998,"Pictures_Onset",647.001,"15","Salty",15,40,50,2,"no","down","Right",0,"FF","FL",4,"down",648,1,"Guest15"
15,0.642291665077209,0.536500036716461,68.8329162597656,128.656036376953,39.9906234741211,249.996,1903.002,881.997,"Pictures_Onset",864,"15","Healthy",15,40,50,2,"no","down","Right",0,"FF","FL",4,"down",648,1,"Guest15"
15,0.598923087120056,0.535179495811462,48.1812782287598,128.960754394531,40.100772857666,199.001,2235.994,1214.989,"Pictures_Onset",1196.992,"15","Healthy",15,40,50,2,"no","down","Right",0,"FF","FL",4,"down",648,1,"Guest15"
16,0.616916656494141,0.474375009536743,56.6941680908203,144.306655883789,45.6854133605957,115.994,1254.003,232.998,"Pictures_Onset",215.001,"15","Salty",15,40,50,3,"no","down","Right",1,"FL","FF",4,"down",447,1,"Guest15"
16,0.61936366558075,0.469969660043716,57.8084869384766,145.401214599609,46.0833358764648,167.002,1404.006,383.001,"Pictures_Onset",365.004,"15","Salty",15,40,50,3,"no","down","Right",1,"FL","FF",4,"down",447,1,"Guest15"
16,0.648958325386047,0.457041651010513,71.9345855712891,148.681671142578,47.2795829772949,116.992,1603.008,582.003,"Pictures_Onset",564.006,"15","Salty",15,40,50,3,"no","down","Right",1,"FL","FF",4,"down",447,1,"Guest15"
16,0.397766619920731,0.492250025272369,-47.7408332824707,139.772674560547,44.036491394043,315.994,1803.008,782.003,"Pictures_Onset",764.006,"15","Healthy",15,40,50,3,"no","down","Right",1,"FL","FF",4,"down",447,1,"Guest15"
16,0.41058337688446,0.467069387435913,-41.632640838623,146.11848449707,46.3456993103027,384,2152,1130.995,"Pictures_Onset",1112.998,"15","Healthy",15,40,50,3,"no","down","Right",1,"FL","FF",4,"down",447,1,"Guest15"
17,0.384242415428162,0.471636384725571,-54.2724266052246,144.964538574219,45.9251556396484,165.991,1308.006,283.008,"Pictures_Onset",269.004,"15","Salty",15,40,50,1,"no","up","Left",1,"FF","FL",5,"up",633,1,"Guest15"
17,0.629480004310608,0.498693436384201,62.727466583252,138.19319152832,43.4603996276855,400,1557.005,532.007,"Pictures_Onset",518.003,"15","Healthy",15,40,50,1,"no","up","Left",1,"FF","FL",5,"up",633,1,"Guest15"
17,0.644623219966888,0.492289930582047,69.8718795776367,139.790435791016,44.041877746582,366.004,2072.998,1048,"Pictures_Onset",1033.996,"15","Healthy",15,40,50,1,"no","up","Left",1,"FF","FL",5,"up",633,1,"Guest15"
17,0.58252626657486,0.472017526626587,40.327018737793,144.896682739258,45.9015808105469,299.008,2488.998,1464,"Pictures_Onset",1449.996,"15","Healthy",15,40,50,1,"no","up","Left",1,"FF","FL",5,"up",633,1,"Guest15"
17,0.600000023841858,0.474099963903427,48.6270027160645,144.353332519531,45.7040023803711,149.005,2822.003,1797.005,"Pictures_Onset",1783.001,"15","Healthy",15,40,50,1,"no","up","Left",1,"FF","FL",5,"up",633,1,"Guest15"
18,0.389771938323975,0.530614018440247,-51.5605239868164,130.154907226562,40.5361442565918,300.006,1227.994,199.002,"Pictures_Onset",188.992,"15","Healthy",15,40,50,2,"no","up","Left",0,"FL","FF",5,"up",643,1,"Guest15"
18,0.632825374603271,0.53677773475647,64.3320617675781,128.543655395508,39.9488868713379,331.994,1728,699.008,"Pictures_Onset",688.998,"15","Salty",15,40,50,2,"no","up","Left",0,"FL","FF",5,"up",643,1,"Guest15"
18,0.407347291707993,0.509020864963531,-43.1727752685547,135.565628051758,42.5054817199707,783.001,2127.002,1098.01,"Pictures_Onset",1088,"15","Healthy",15,40,50,2,"no","up","Left",0,"FL","FF",5,"up",643,1,"Guest15"
19,0.393145859241486,0.469541698694229,-49.9622917175293,145.547073364258,46.1374969482422,248.999,1284.006,251.008,"Pictures_Onset",245.004,"15","Salty",15,40,50,3,"no","down","Right",0,"FF","FL",5,"down",488,1,"Guest15"
19,0.393407434225082,0.496074080467224,-49.8885154724121,138.812957763672,43.6877822875977,133.005,1566.003,533.005,"Pictures_Onset",527.001,"15","Salty",15,40,50,3,"no","down","Right",0,"FF","FL",5,"down",488,1,"Guest15"
19,0.632739126682281,0.497492790222168,64.2234802246094,138.447540283203,43.5543479919434,366.003,1783.002,750.004,"Pictures_Onset",744,"15","Healthy",15,40,50,3,"no","down","Right",0,"FF","FL",5,"down",488,1,"Guest15"
19,0.410493791103363,0.485814839601517,-41.6746864318848,141.408874511719,44.6319732666016,432.998,2365.005,1332.007,"Pictures_Onset",1326.003,"15","Salty",15,40,50,3,"no","down","Right",0,"FF","FL",5,"down",488,1,"Guest15"
20,0.389866709709167,0.473546624183655,-51.5369300842285,144.515731811523,45.7629356384277,400,1249.997,216,"Pictures_Onset",210.995,"15","Healthy",15,40,50,4,"no","down","Right",1,"FL","FF",5,"down",474,1,"Guest15"
20,0.647076904773712,0.500423073768616,71.0746154785156,137.715118408203,43.2873115539551,416,1732.992,698.995,"Pictures_Onset",693.99,"15","Salty",15,40,50,4,"no","down","Right",1,"FL","FF",5,"down",474,1,"Guest15"
20,0.373833328485489,0.457999974489212,-59.2141723632812,148.414413452148,47.1809577941895,448.998,2215.002,1181.005,"Pictures_Onset",1176,"15","Healthy",15,40,50,4,"no","down","Right",1,"FL","FF",5,"down",474,1,"Guest15"
20,0.356976211071014,0.44435715675354,-67.2711868286133,151.860717773438,48.4369010925293,216,2697.997,1664,"Pictures_Onset",1658.995,"15","Healthy",15,40,50,4,"no","down","Right",1,"FL","FF",5,"down",474,1,"Guest15"
21,0.394783318042755,0.521116673946381,-49.1794967651367,132.530502319336,41.4005012512207,316.007,1320.998,298.995,"Pictures_Onset",281.996,"15","Salty",15,40,50,2,"no","down","Left",1,"FF","FL",6,"down",534,1,"Guest15"
21,0.632942080497742,0.532666683197021,64.3069458007812,129.631011962891,40.34521484375,365.005,1720.998,698.995,"Pictures_Onset",681.996,"15","Healthy",15,40,50,2,"no","down","Left",1,"FF","FL",6,"down",534,1,"Guest15"
21,0.621274888515472,0.531508386135101,58.764331817627,129.916839599609,40.4486618041992,649.011,2120,1097.997,"Pictures_Onset",1080.998,"15","Healthy",15,40,50,2,"no","down","Left",1,"FF","FL",6,"down",534,1,"Guest15"
22,0.638454496860504,0.511848509311676,66.9675750732422,134.894256591797,42.2615165710449,166.003,1259.994,167.002,"Pictures_Onset",220.992,"15","Salty",15,40,50,3,"no","down","Left",0,"FL","FF",6,"down",556,1,"Guest15"
22,0.637897431850433,0.504717946052551,66.6820526123047,136.655136108398,42.9010238647461,200,1458.995,366.003,"Pictures_Onset",419.993,"15","Salty",15,40,50,3,"no","down","Left",0,"FL","FF",6,"down",556,1,"Guest15"
22,0.374725461006165,0.46950975060463,-58.7580490112305,145.54411315918,46.1380386352539,549.005,1741.99,648.998,"Pictures_Onset",702.988,"15","Healthy",15,40,50,3,"no","down","Left",0,"FL","FF",6,"down",556,1,"Guest15"
22,0.641666650772095,0.494087666273117,68.487190246582,139.355270385742,43.8840408325195,300.007,2373.99,1280.998,"Pictures_Onset",1334.988,"15","Salty",15,40,50,3,"no","down","Left",0,"FL","FF",6,"down",556,1,"Guest15"
22,0.638410270214081,0.496358931064606,66.9128112792969,138.782302856445,43.6756401062012,199.001,2707.994,1615.002,"Pictures_Onset",1668.992,"15","Salty",15,40,50,3,"no","down","Left",0,"FL","FF",6,"down",556,1,"Guest15"
23,0.412296265363693,0.457111090421677,-40.8577766418457,148.675918579102,47.2766647338867,133.005,1356.992,331.994,"Pictures_Onset",317.99,"15","Salty",15,40,50,4,"no","up","Right",0,"FF","FL",6,"up",603,1,"Guest15"
23,0.630666673183441,0.480777740478516,63.1766700744629,142.700546264648,45.1011161804199,181.991,1574.003,549.005,"Pictures_Onset",535.001,"15","Healthy",15,40,50,4,"no","up","Right",0,"FF","FL",6,"up",603,1,"Guest15"
23,0.626622259616852,0.470066666603088,61.3437767028809,145.430435180664,46.0953330993652,233.012,1789.99,764.992,"Pictures_Onset",750.988,"15","Healthy",15,40,50,4,"no","up","Right",0,"FF","FL",6,"up",603,1,"Guest15"
23,0.624444484710693,0.474277824163437,60.297966003418,144.333145141602,45.6946296691895,132.992,2056,1031.002,"Pictures_Onset",1016.998,"15","Healthy",15,40,50,4,"no","up","Right",0,"FF","FL",6,"up",603,1,"Guest15"
23,0.598000049591064,0.469638913869858,47.688060760498,145.486953735352,46.1152763366699,381.99,2256,1231.002,"Pictures_Onset",1216.998,"15","Healthy",15,40,50,4,"no","up","Right",0,"FF","FL",6,"up",603,1,"Guest15"
23,0.589399993419647,0.469466596841812,43.6075553894043,145.54377746582,46.1388893127441,232,2672,1647.002,"Pictures_Onset",1632.998,"15","Healthy",15,40,50,4,"no","up","Right",0,"FF","FL",6,"up",603,1,"Guest15"
24,0.406714290380478,0.481666624546051,-43.4819030761719,142.475234985352,45.0200004577637,216.998,1232,200,"Pictures_Onset",192.998,"15","Healthy",15,40,50,1,"no","up","Right",1,"FL","FF",6,"up",457,1,"Guest15"
24,0.638952374458313,0.502321422100067,67.2014236450195,137.264404296875,43.1228637695312,448.998,1531.994,499.994,"Pictures_Onset",492.992,"15","Salty",15,40,50,1,"no","up","Right",1,"FL","FF",6,"up",457,1,"Guest15"
24,0.370986014604568,0.474847227334976,-60.5833320617676,144.202514648438,45.6481971740723,384,2064,1032,"Pictures_Onset",1024.998,"15","Healthy",15,40,50,1,"no","up","Right",1,"FL","FF",6,"up",457,1,"Guest15"
24,0.390428602695465,0.487714290618896,-51.2285690307617,140.917617797852,44.4523811340332,101.005,2480,1448,"Pictures_Onset",1440.998,"15","Healthy",15,40,50,1,"no","up","Right",1,"FL","FF",6,"up",457,1,"Guest15"
24,0.391518503427505,0.490370392799377,-50.7748184204102,140.277404785156,44.2196311950684,134.989,2613.005,1581.005,"Pictures_Onset",1574.003,"15","Healthy",15,40,50,1,"no","up","Right",1,"FL","FF",6,"up",457,1,"Guest15"
25,0.394313722848892,0.480235278606415,-49.4333381652832,142.804702758789,45.1399993896484,264.999,1306.995,283.993,"Pictures_Onset",267.993,"15","Salty",15,40,50,3,"no","down","Left",1,"FF","FL",7,"down",483,1,"Guest15"
25,0.65828001499176,0.493946671485901,76.3716049194336,139.361068725586,43.8857307434082,398.988,1639.002,616,"Pictures_Onset",600,"15","Healthy",15,40,50,3,"no","down","Left",1,"FF","FL",7,"down",483,1,"Guest15"
26,0.552818179130554,0.459666639566422,26.1236343383789,148.013046264648,47.036060333252,166.003,1035.994,0,"Pictures_Onset",-3.00800000000004,"15","Salty",15,40,50,4,"no","down","Left",0,"FL","FF",7,"down",657,1,"Guest15"
26,0.589833378791809,0.467777758836746,43.7894439697266,145.986114501953,46.2952766418457,184.999,1250.995,215.001,"Pictures_Onset",211.993,"15","Salty",15,40,50,4,"no","down","Left",0,"FL","FF",7,"down",657,1,"Guest15"
26,0.386888921260834,0.456866651773453,-53.0048866271973,148.736465454102,47.2984466552734,232.999,1518.003,482.009,"Pictures_Onset",479.001,"15","Healthy",15,40,50,4,"no","down","Left",0,"FL","FF",7,"down",657,1,"Guest15"
26,0.619357168674469,0.47800001502037,57.8595237731934,143.378341674805,45.3478584289551,216.999,1850.995,815.001,"Pictures_Onset",811.993,"15","Salty",15,40,50,4,"no","down","Left",0,"FL","FF",7,"down",657,1,"Guest15"
26,0.359410256147385,0.460000038146973,-66.0874328613281,147.882827758789,46.9874420166016,200,2150.003,1114.009,"Pictures_Onset",1111.001,"15","Healthy",15,40,50,4,"no","down","Left",0,"FL","FF",7,"down",657,1,"Guest15"
26,0.628807663917542,0.477320522069931,62.2938499450684,143.550262451172,45.4106369018555,415.001,2433.997,1398.003,"Pictures_Onset",1394.995,"15","Salty",15,40,50,4,"no","down","Left",0,"FL","FF",7,"down",657,1,"Guest15"
27,0.380820542573929,0.480359017848969,-55.8917999267578,142.818710327148,45.1446113586426,200,1399.002,316.007,"Pictures_Onset",360,"15","Salty",15,40,50,1,"no","up","Right",0,"FF","FL",7,"up",562,1,"Guest15"
27,0.625949442386627,0.525464594364166,60.9968757629395,131.428283691406,40.9988899230957,533.005,1681.997,599.002,"Pictures_Onset",642.995,"15","Healthy",15,40,50,1,"no","up","Right",0,"FF","FL",7,"up",562,1,"Guest15"
28,0.38986274600029,0.513549089431763,-51.5513687133789,134.414123535156,42.0856857299805,265.997,1254.003,232.998,"Pictures_Onset",215.001,"15","Healthy",15,40,50,2,"no","up","Right",1,"FL","FF",7,"up",533,1,"Guest15"
28,0.63628888130188,0.528688848018646,65.956672668457,130.633560180664,40.7106666564941,232.998,1586.01,565.005,"Pictures_Onset",547.008,"15","Salty",15,40,50,2,"no","up","Right",1,"FL","FF",7,"up",533,1,"Guest15"
28,0.632733285427094,0.530866622924805,64.2426605224609,130.054885864258,40.4995536804199,233.997,1852.006,831.001,"Pictures_Onset",813.004,"15","Salty",15,40,50,2,"no","up","Right",1,"FL","FF",7,"up",533,1,"Guest15"
28,0.35813894867897,0.518805503845215,-66.6600036621094,133.134170532227,41.6193046569824,383.002,2168,1146.995,"Pictures_Onset",1128.998,"15","Healthy",15,40,50,2,"no","up","Right",1,"FL","FF",7,"up",533,1,"Guest15"
29,0.416604161262512,0.45068746805191,-38.8252029418945,150.257080078125,47.8527069091797,249.012,1253.99,168,"Pictures_Onset",214.988,"15","Salty",15,40,50,4,"no","down","Left",1,"FF","FL",8,"down",508,1,"Guest15"
29,0.623966693878174,0.484083265066147,60.0345039367676,141.85498046875,44.7946701049805,317.005,1585.997,500.007,"Pictures_Onset",546.995,"15","Healthy",15,40,50,4,"no","down","Left",1,"FF","FL",8,"down",508,1,"Guest15"
29,0.607783377170563,0.46481665968895,52.3314056396484,146.708740234375,46.5612182617188,981.99,1935.002,849.012,"Pictures_Onset",896,"15","Healthy",15,40,50,4,"no","down","Left",1,"FF","FL",8,"down",508,1,"Guest15"
30,0.390083283185959,0.478349983692169,-51.4874992370605,143.290176391602,45.3154983520508,315.993,1229.005,199.002,"Pictures_Onset",190.003,"15","Healthy",15,40,50,1,"no","down","Left",0,"FL","FF",8,"down",532,1,"Guest15"
30,0.619192898273468,0.507771909236908,57.7829780578613,135.892639160156,42.6247367858887,299.008,1611.994,581.991,"Pictures_Onset",572.992,"15","Salty",15,40,50,1,"no","down","Left",0,"FL","FF",8,"down",532,1,"Guest15"
30,0.612217962741852,0.50869232416153,54.4669189453125,135.663192749023,42.5401344299316,416,1944.998,914.995,"Pictures_Onset",905.996,"15","Salty",15,40,50,1,"no","down","Left",0,"FL","FF",8,"down",532,1,"Guest15"
30,0.589205861091614,0.490480422973633,43.4423522949219,140.237243652344,44.2052001953125,549.005,2393.997,1363.994,"Pictures_Onset",1354.995,"15","Salty",15,40,50,1,"no","down","Left",0,"FL","FF",8,"down",532,1,"Guest15"
31,0.385538429021835,0.518051266670227,-53.5999984741211,133.322540283203,41.6887130737305,200,1438.003,399.001,"Pictures_Onset",399.001,"15","Salty",15,40,50,2,"no","up","Right",0,"FF","FL",8,"up",853,1,"Guest15"
31,0.614304423332214,0.524985492229462,55.4201431274414,131.546234130859,41.0424690246582,365.005,2238.003,1199.001,"Pictures_Onset",1199.001,"15","Healthy",15,40,50,2,"no","up","Right",0,"FF","FL",8,"up",853,1,"Guest15"
32,0.39437136054039,0.485133349895477,-49.3744735717773,141.586654663086,44.6962852478027,565.005,1289.997,266.995,"Pictures_Onset",250.995,"15","Healthy",15,40,50,3,"no","up","Right",1,"FL","FF",8,"up",564,1,"Guest15"
32,0.66289746761322,0.497128188610077,78.5979537963867,138.551544189453,43.5915451049805,200,1937.997,914.995,"Pictures_Onset",898.995,"15","Salty",15,40,50,3,"no","up","Right",1,"FL","FF",8,"up",564,1,"Guest15"
32,0.659874975681305,0.494791626930237,77.1116638183594,139.138732910156,43.8016662597656,117.005,2170.995,1147.993,"Pictures_Onset",1131.993,"15","Salty",15,40,50,3,"no","up","Right",1,"FL","FF",8,"up",564,1,"Guest15"
32,0.37115478515625,0.483571469783783,-60.4760665893555,141.982482910156,44.8404808044434,449.997,2353.997,1330.995,"Pictures_Onset",1314.995,"15","Healthy",15,40,50,3,"no","up","Right",1,"FL","FF",8,"up",564,1,"Guest15"
33,0.387787908315659,0.476515203714371,-52.5321197509766,143.779693603516,45.4957542419434,165.005,1278.003,249.997,"Pictures_Onset",239.001,"15","Salty",15,40,50,1,"no","down","Left",1,"FF","FL",9,"down",525,1,"Guest15"
33,0.643733382225037,0.484499990940094,69.4190063476562,141.769989013672,44.762996673584,150.004,1576.998,548.992,"Pictures_Onset",537.996,"15","Healthy",15,40,50,1,"no","down","Left",1,"FF","FL",9,"down",525,1,"Guest15"
33,0.642717957496643,0.480641037225723,68.8843536376953,142.720245361328,45.1076927185059,200,1760,731.994,"Pictures_Onset",720.998,"15","Healthy",15,40,50,1,"no","down","Left",1,"FF","FL",9,"down",525,1,"Guest15"
33,0.433794856071472,0.458717972040176,-30.6207695007324,148.246154785156,47.1202583312988,198.989,2043.008,1015.002,"Pictures_Onset",1004.006,"15","Salty",15,40,50,1,"no","down","Left",1,"FF","FL",9,"down",525,1,"Guest15"
33,0.398306667804718,0.456026583909988,-47.4938659667969,148.910781860352,47.3617324829102,400,2292.006,1264,"Pictures_Onset",1253.004,"15","Salty",15,40,50,1,"no","down","Left",1,"FF","FL",9,"down",525,1,"Guest15"
34,0.390854209661484,0.525395810604095,-51.1493721008301,131.410629272461,40.9927062988281,249.997,1224.998,200,"Pictures_Onset",185.996,"15","Healthy",15,40,50,2,"no","down","Left",0,"FL","FF",9,"down",683,1,"Guest15"
34,0.619044423103333,0.539133310317993,57.7064437866211,127.972671508789,39.7413330078125,232.998,1707.994,682.996,"Pictures_Onset",668.992,"15","Salty",15,40,50,2,"no","down","Left",0,"FL","FF",9,"down",683,1,"Guest15"
34,0.409809529781342,0.529952347278595,-42.0761947631836,130.274291992188,40.5799980163574,216,2008,983.002,"Pictures_Onset",968.998,"15","Healthy",15,40,50,2,"no","down","Left",0,"FL","FF",9,"down",683,1,"Guest15"
35,0.630133390426636,0.496288865804672,63.0248908996582,138.790222167969,43.6773338317871,232.998,1233.997,115.994,"Pictures_Onset",194.995,"15","Healthy",15,40,50,3,"no","up","Right",0,"FF","FL",9,"up",564,1,"Guest15"
35,0.652740716934204,0.512037038803101,73.7537002563477,134.845169067383,42.2425956726074,133.004,1499.994,381.991,"Pictures_Onset",460.992,"15","Healthy",15,40,50,3,"no","up","Right",0,"FF","FL",9,"up",564,1,"Guest15"
35,0.382275342941284,0.472681134939194,-55.195068359375,144.743927001953,45.8449325561523,365.005,1716.992,598.989,"Pictures_Onset",677.99,"15","Salty",15,40,50,3,"no","up","Right",0,"FF","FL",9,"up",564,1,"Guest15"
35,0.649333357810974,0.484611093997955,72.1244506835938,141.732772827148,44.7507438659668,283.008,2165.99,1047.987,"Pictures_Onset",1126.988,"15","Healthy",15,40,50,3,"no","up","Right",0,"FF","FL",9,"up",564,1,"Guest15"
35,0.646508693695068,0.472175389528275,70.8124618530273,144.869659423828,45.8908767700195,298.995,2481.997,1363.994,"Pictures_Onset",1442.995,"15","Healthy",15,40,50,3,"no","up","Right",0,"FF","FL",9,"up",564,1,"Guest15"
35,0.614966690540314,0.462799966335297,55.7813339233398,147.206329345703,46.7423324584961,149.99,2831.002,1712.999,"Pictures_Onset",1792,"15","Healthy",15,40,50,3,"no","up","Right",0,"FF","FL",9,"up",564,1,"Guest15"
36,0.377083331346512,0.471249967813492,-57.6650009155273,145.074584960938,45.9658317565918,116.992,1286.003,266.009,"Pictures_Onset",247.001,"15","Healthy",15,40,50,4,"no","up","Right",1,"FL","FF",9,"up",658,1,"Guest15"
36,0.376564055681229,0.479538440704346,-57.9064102172852,142.961547851562,45.1961517333984,200,1435.994,416,"Pictures_Onset",396.992,"15","Healthy",15,40,50,4,"no","up","Right",1,"FL","FF",9,"up",658,1,"Guest15"
36,0.638359010219574,0.488102585077286,66.9712829589844,140.826141357422,44.4202537536621,200,1735.002,715.008,"Pictures_Onset",696,"15","Salty",15,40,50,4,"no","up","Right",1,"FL","FF",9,"up",658,1,"Guest15"
36,0.379500031471252,0.453555524349213,-56.4422187805176,149.541107177734,47.591480255127,283.008,2017.997,998.003,"Pictures_Onset",978.995,"15","Healthy",15,40,50,4,"no","up","Right",1,"FL","FF",9,"up",658,1,"Guest15"
36,0.585277795791626,0.469981461763382,41.5957412719727,145.425003051758,46.0937042236328,281.997,2518.003,1498.009,"Pictures_Onset",1479.001,"15","Salty",15,40,50,4,"no","up","Right",1,"FL","FF",9,"up",658,1,"Guest15"
37,0.623044371604919,0.547555565834045,59.6482200622559,125.890434265137,38.9842262268066,232.999,1274.995,248.998,"Pictures_Onset",235.993,"15","Healthy",15,40,50,2,"no","down","Left",1,"FF","FL",10,"down",646,1,"Guest15"
37,0.621095240116119,0.549380958080292,58.7857131958008,125.434768676758,38.8176193237305,100.007,1541.99,515.993,"Pictures_Onset",502.988,"15","Healthy",15,40,50,2,"no","down","Left",1,"FF","FL",10,"down",646,1,"Guest15"
37,0.611800014972687,0.547933340072632,54.3223342895508,125.772994995117,38.9399948120117,150.003,1674.995,648.998,"Pictures_Onset",635.993,"15","Healthy",15,40,50,2,"no","down","Left",1,"FF","FL",10,"down",646,1,"Guest15"
37,0.378952383995056,0.5,-56.7322196960449,137.857147216797,43.3380928039551,333.005,2157.99,1131.993,"Pictures_Onset",1118.988,"15","Salty",15,40,50,2,"no","down","Left",1,"FF","FL",10,"down",646,1,"Guest15"
37,0.338092535734177,0.50298148393631,-76.2955551147461,137.101486206055,43.0644454956055,281.997,2540.992,1514.995,"Pictures_Onset",1501.99,"15","Salty",15,40,50,2,"no","down","Left",1,"FF","FL",10,"down",646,1,"Guest15"
38,0.401366710662842,0.484066665172577,-46.0796661376953,141.880218505859,44.8036651611328,232.666666666667,1217.997,133.991,"Pictures_Onset",178.995,"15","Healthy",15,40,50,3,"no","down","Left",0,"FL","FF",10,"down",510,1,"Guest15"
38,0.637111067771912,0.486407399177551,66.2546310424805,141.241485595703,44.5709266662598,282.995,1534.003,449.997,"Pictures_Onset",495.001,"15","Salty",15,40,50,3,"no","down","Left",0,"FL","FF",10,"down",510,1,"Guest15"
38,0.623878836631775,0.475363612174988,59.922420501709,144.051818847656,45.5945434570312,166.003,1849.997,765.991,"Pictures_Onset",810.995,"15","Salty",15,40,50,3,"no","down","Left",0,"FL","FF",10,"down",510,1,"Guest15"
38,0.399019539356232,0.473078459501266,-47.1576461791992,144.618041992188,45.7998085021973,266.996,2332.006,1248,"Pictures_Onset",1293.004,"15","Healthy",15,40,50,3,"no","down","Left",0,"FL","FF",10,"down",510,1,"Guest15"
38,0.652476191520691,0.483261913061142,73.6261825561523,142.040008544922,44.8600082397461,217.997,2680.998,1596.992,"Pictures_Onset",1641.996,"15","Salty",15,40,50,3,"no","down","Left",0,"FL","FF",10,"down",510,1,"Guest15"
39,0.615820586681366,0.497564107179642,56.1748733520508,138.477691650391,43.5648727416992,200,1295.002,266.01,"Pictures_Onset",256,"15","Healthy",15,40,50,4,"no","up","Right",0,"FF","FL",10,"up",625,1,"Guest15"
39,0.38227778673172,0.446055561304092,-55.167594909668,151.427780151367,48.2788848876953,281.997,1578.995,550.003,"Pictures_Onset",539.993,"15","Salty",15,40,50,4,"no","up","Right",0,"FF","FL",10,"up",625,1,"Guest15"
39,0.572560667991638,0.467651546001434,35.5390090942383,145.979461669922,46.2949981689453,714.995,1928,899.008,"Pictures_Onset",888.998,"15","Healthy",15,40,50,4,"no","up","Right",0,"FF","FL",10,"up",625,1,"Guest15"
40,0.380083322525024,0.488083332777023,-56.2386131286621,140.874725341797,44.4380531311035,183.987,1339.008,315.008,"Pictures_Onset",300.006,"15","Healthy",15,40,50,1,"no","up","Right",1,"FL","FF",10,"up",530,1,"Guest15"
40,0.636333405971527,0.491861015558243,65.9616622924805,139.886795043945,44.0783348083496,383.001,1605.005,581.005,"Pictures_Onset",566.003,"15","Salty",15,40,50,1,"no","up","Right",1,"FL","FF",10,"up",530,1,"Guest15"
40,0.62954169511795,0.492458313703537,62.7316627502441,139.700836181641,44.0108337402344,116.992,2021.005,997.005,"Pictures_Onset",982.003,"15","Salty",15,40,50,1,"no","up","Right",1,"FL","FF",10,"up",530,1,"Guest15"
40,0.61212819814682,0.471897423267365,54.3725624084473,144.924346923828,45.9115409851074,199.987,2171.008,1147.008,"Pictures_Onset",1132.006,"15","Salty",15,40,50,1,"no","up","Right",1,"FL","FF",10,"up",530,1,"Guest15"
41,0.399805545806885,0.471999973058701,-46.8347282409668,144.89778137207,45.902774810791,183.002,1304,283.008,"Pictures_Onset",264.998,"15","Sugary",15,40,50,3,"no","up","Left",1,"FS","FL",11,"up",549,1,"Guest15"
41,0.651031672954559,0.499841332435608,72.9106292724609,137.88493347168,43.3495178222656,334.004,1552.998,532.006,"Pictures_Onset",513.996,"15","Healthy",15,40,50,3,"no","up","Left",1,"FS","FL",11,"up",549,1,"Guest15"
41,0.640536248683929,0.482202917337418,67.9415969848633,142.333770751953,44.9669609069824,367.001,1919.002,898.01,"Pictures_Onset",880,"15","Healthy",15,40,50,3,"no","up","Left",1,"FS","FL",11,"up",549,1,"Guest15"
41,0.389104902744293,0.44864821434021,-51.9412384033203,150.789932250977,48.0461692810059,432.999,2368.998,1348.006,"Pictures_Onset",1329.996,"15","Sugary",15,40,50,3,"no","up","Left",1,"FS","FL",11,"up",549,1,"Guest15"
42,0.3972307741642,0.446923077106476,-48.1515426635742,151.207443237305,48.1992263793945,200,1285.005,250.01,"Pictures_Onset",246.003,"15","Healthy",15,40,50,4,"no","up","Left",0,"FL","FS",11,"up",433,1,"Guest15"
42,0.643682539463043,0.463142842054367,69.4304809570312,147.114593505859,46.7073059082031,333.005,1568,533.005,"Pictures_Onset",528.998,"15","Sugary",15,40,50,4,"no","up","Left",0,"FL","FS",11,"up",433,1,"Guest15"
42,0.355777770280838,0.459711074829102,-67.7686614990234,147.982666015625,47.0244407653809,232,2068.006,1033.011,"Pictures_Onset",1029.004,"15","Healthy",15,40,50,4,"no","up","Left",0,"FL","FS",11,"up",433,1,"Guest15"
42,0.339452356100082,0.471904754638672,-75.6211929321289,144.898559570312,45.9019088745117,215.002,2334.003,1299.008,"Pictures_Onset",1295.001,"15","Healthy",15,40,50,4,"no","up","Left",0,"FL","FS",11,"up",433,1,"Guest15"
42,0.371736854314804,0.448368430137634,-60.2352600097656,150.848754882812,48.0678939819336,300.006,2583.002,1548.007,"Pictures_Onset",1544,"15","Healthy",15,40,50,4,"no","up","Left",0,"FL","FS",11,"up",433,1,"Guest15"
43,0.381000012159348,0.472000002861023,-55.7884788513184,144.909683227539,45.906364440918,167.002,1328,299.994,"Pictures_Onset",288.998,"15","Sugary",15,40,50,1,"no","down","Right",0,"FS","FL",11,"down",643,1,"Guest15"
43,0.630301594734192,0.499492019414902,63.0268249511719,137.959045410156,43.3752365112305,333.005,1560.998,532.992,"Pictures_Onset",521.996,"15","Healthy",15,40,50,1,"no","down","Right",0,"FS","FL",11,"down",643,1,"Guest15"
43,0.615060567855835,0.499757587909698,55.7433319091797,137.917877197266,43.360912322998,166.003,1927.002,898.996,"Pictures_Onset",888,"15","Healthy",15,40,50,1,"no","down","Right",0,"FS","FL",11,"down",643,1,"Guest15"
43,0.640031695365906,0.468714207410812,67.7233276367188,145.748748779297,46.21142578125,332.992,2126.003,1097.997,"Pictures_Onset",1087.001,"15","Healthy",15,40,50,1,"no","down","Right",0,"FS","FL",11,"down",643,1,"Guest15"
43,0.416861116886139,0.444138884544373,-38.7006492614746,151.921112060547,48.4591674804688,282.01,2642.995,1614.989,"Pictures_Onset",1603.993,"15","Sugary",15,40,50,1,"no","down","Right",0,"FS","FL",11,"down",643,1,"Guest15"
44,0.610870480537415,0.538074135780334,53.8218536376953,128.242416381836,39.8398170471191,281.997,1254.003,216.998,"Pictures_Onset",215.001,"15","Sugary",15,40,50,2,"no","down","Right",1,"FL","FS",11,"down",632,1,"Guest15"
44,0.625958323478699,0.501833319664001,61.0783348083496,137.349166870117,43.1533317565918,116.006,1569.997,532.992,"Pictures_Onset",530.995,"15","Sugary",15,40,50,2,"no","down","Right",1,"FL","FS",11,"down",632,1,"Guest15"
44,0.375136345624924,0.502757608890533,-58.5671234130859,137.128921508789,43.0733337402344,349.005,1768.998,731.993,"Pictures_Onset",729.996,"15","Healthy",15,40,50,2,"no","down","Right",1,"FL","FS",11,"down",632,1,"Guest15"
44,0.450507283210754,0.498333364725113,-22.6172466278076,138.246246337891,43.4807243347168,366.003,2201.997,1164.992,"Pictures_Onset",1162.995,"15","Healthy",15,40,50,2,"no","down","Right",1,"FL","FS",11,"down",632,1,"Guest15"
44,0.395407378673553,0.504703760147095,-48.8714828491211,136.66259765625,42.9048156738281,133.991,2734.003,1696.998,"Pictures_Onset",1695.001,"15","Healthy",15,40,50,2,"no","down","Right",1,"FL","FS",11,"down",632,1,"Guest15"
45,0.377111107110977,0.444555550813675,-57.5968055725098,151.833602905273,48.4265289306641,182.003,1255.002,233.997,"Pictures_Onset",216,"15","Sugary",15,40,50,4,"no","up","Left",1,"FS","FL",12,"up",567,1,"Guest15"
45,0.641470611095428,0.472843050956726,68.3931350708008,144.678619384766,45.821174621582,265.996,1538.01,517.005,"Pictures_Onset",499.008,"15","Healthy",15,40,50,4,"no","up","Left",1,"FS","FL",12,"up",567,1,"Guest15"
45,0.622430562973022,0.489097267389297,59.2613868713379,140.58610534668,44.3313865661621,383.001,1837.005,816,"Pictures_Onset",798.003,"15","Healthy",15,40,50,4,"no","up","Left",1,"FS","FL",12,"up",567,1,"Guest15"
45,0.406302094459534,0.466552078723907,-43.7083358764648,146.27978515625,46.404899597168,248.999,2404.006,1383.001,"Pictures_Onset",1365.004,"15","Sugary",15,40,50,4,"no","up","Left",1,"FS","FL",12,"up",567,1,"Guest15"
46,0.615750014781952,0.507583379745483,56.1575012207031,135.89958190918,42.6254119873047,249.996,1239.002,216,"Pictures_Onset",200,"15","Sugary",15,40,50,1,"no","up","Left",0,"FL","FS",12,"up",699,1,"Guest15"
46,0.366675019264221,0.492366641759872,-62.6559066772461,139.776260375977,44.0372505187988,315.994,1572.006,549.004,"Pictures_Onset",533.004,"15","Healthy",15,40,50,1,"no","up","Left",0,"FL","FS",12,"up",699,1,"Guest15"
46,0.353901982307434,0.50441175699234,-68.704704284668,136.713134765625,42.9219665527344,265.997,1920.998,897.996,"Pictures_Onset",881.996,"15","Healthy",15,40,50,1,"no","up","Left",0,"FL","FS",12,"up",699,1,"Guest15"
46,0.391370415687561,0.471185147762299,-50.7948150634766,145.114242553711,45.9807434082031,282.995,2238.003,1215.001,"Pictures_Onset",1199.001,"15","Healthy",15,40,50,1,"no","up","Left",0,"FL","FS",12,"up",699,1,"Guest15"
46,0.41049998998642,0.495916694402695,-41.6691665649414,138.920013427734,43.7262496948242,116.007,2570.995,1547.993,"Pictures_Onset",1531.993,"15","Healthy",15,40,50,1,"no","up","Left",0,"FL","FS",12,"up",699,1,"Guest15"
46,0.33919233083725,0.456230789422989,-75.685905456543,148.828582763672,47.3341064453125,200,2736.998,1713.996,"Pictures_Onset",1697.996,"15","Healthy",15,40,50,1,"no","up","Left",0,"FL","FS",12,"up",699,1,"Guest15"
47,0.597249984741211,0.538458287715912,47.3587532043457,128.171249389648,39.8137474060059,116.006,1237.005,216.999,"Pictures_Onset",198.003,"15","Healthy",15,40,50,2,"no","down","Right",0,"FS","FL",12,"down",806,1,"Guest15"
47,0.340913057327271,0.486898511648178,-74.8698654174805,141.151000976562,44.5385513305664,366.004,1436.006,416,"Pictures_Onset",397.004,"15","Sugary",15,40,50,2,"no","down","Right",0,"FS","FL",12,"down",806,1,"Guest15"
47,0.623490214347839,0.534372568130493,59.831371307373,129.202941894531,40.1898040771484,265.997,1886.003,865.997,"Pictures_Onset",847.001,"15","Healthy",15,40,50,2,"no","down","Right",0,"FS","FL",12,"down",806,1,"Guest15"
47,0.604051232337952,0.548025548458099,50.5794868469238,125.776412963867,38.9412803649902,200,2202.01,1182.004,"Pictures_Onset",1163.008,"15","Healthy",15,40,50,2,"no","down","Right",0,"FS","FL",12,"down",806,1,"Guest15"
47,0.449666649103165,0.507512867450714,-23.0400009155273,135.939483642578,42.6412811279297,199.001,2469.005,1448.999,"Pictures_Onset",1430.003,"15","Sugary",15,40,50,2,"no","down","Right",0,"FS","FL",12,"down",806,1,"Guest15"
47,0.60099995136261,0.541177749633789,49.107780456543,127.468673706055,39.5568885803223,232.998,2751.002,1730.996,"Pictures_Onset",1712,"15","Healthy",15,40,50,2,"no","down","Right",0,"FS","FL",12,"down",806,1,"Guest15"
48,0.389800012111664,0.477666705846786,-51.5833358764648,143.4677734375,45.3811073303223,233.997,1305.011,283.008,"Pictures_Onset",266.009,"15","Healthy",15,40,50,3,"no","down","Right",1,"FL","FS",12,"down",552,1,"Guest15"
48,0.637766718864441,0.465683370828629,66.6139984130859,146.478500366211,46.4753341674805,316.006,1704,681.997,"Pictures_Onset",664.998,"15","Sugary",15,40,50,3,"no","down","Right",1,"FL","FS",12,"down",552,1,"Guest15"
49,0.635148167610168,0.504981517791748,65.3690795898438,136.583709716797,42.8740730285645,282.995,1534.003,516.006,"Pictures_Onset",495.001,"15","Healthy",15,40,50,1,"no","up","Left",1,"FS","FL",13,"up",610,1,"Guest15"
49,0.633138835430145,0.505472183227539,64.3625030517578,136.47721862793,42.8372192382812,182.003,1849.997,832,"Pictures_Onset",810.995,"15","Healthy",15,40,50,1,"no","up","Left",1,"FS","FL",13,"up",610,1,"Guest15"
49,0.387901991605759,0.449500024318695,-52.5129470825195,150.569427490234,47.9649124145508,549.004,2383.002,1365.005,"Pictures_Onset",1344,"15","Sugary",15,40,50,1,"no","up","Left",1,"FS","FL",13,"up",610,1,"Guest15"
50,0.383619010448456,0.515761911869049,-54.5561866760254,133.869522094727,41.8885726928711,216,1344,315.008,"Pictures_Onset",304.998,"15","Healthy",15,40,50,2,"no","up","Left",0,"FL","FS",13,"up",523,1,"Guest15"
50,0.623927593231201,0.527463734149933,60.0560836791992,130.933044433594,40.8179702758789,366.003,1626.995,598.003,"Pictures_Onset",587.993,"15","Sugary",15,40,50,2,"no","up","Left",0,"FL","FS",13,"up",523,1,"Guest15"
50,0.633363604545593,0.537757515907288,64.5324172973633,128.350601196289,39.879093170166,166.003,2026.995,998.003,"Pictures_Onset",987.993,"15","Sugary",15,40,50,2,"no","up","Left",0,"FL","FS",13,"up",523,1,"Guest15"
50,0.556909024715424,0.514939486980438,28.0918197631836,134.102722167969,41.973030090332,166.003,2242.995,1214.003,"Pictures_Onset",1203.993,"15","Sugary",15,40,50,2,"no","up","Left",0,"FL","FS",13,"up",523,1,"Guest15"
51,0.639649987220764,0.506200015544891,67.5309982299805,136.283493041992,42.7646675109863,317.005,1242.995,147.993,"Pictures_Onset",203.993,"15","Healthy",15,40,50,3,"no","down","Right",0,"FS","FL",13,"down",619,1,"Guest15"
51,0.63788890838623,0.512777805328369,66.6637115478516,134.598526000977,42.152961730957,133.005,1592.998,497.996,"Pictures_Onset",553.996,"15","Healthy",15,40,50,3,"no","down","Right",0,"FS","FL",13,"down",619,1,"Guest15"
51,0.378421068191528,0.458929806947708,-57.0175476074219,148.224899291992,47.1129875183105,299.008,1809.997,714.995,"Pictures_Onset",770.995,"15","Sugary",15,40,50,3,"no","down","Right",0,"FS","FL",13,"down",619,1,"Guest15"
51,0.645080804824829,0.50492924451828,70.1324234008789,136.609405517578,42.8856620788574,531.994,2208.998,1113.996,"Pictures_Onset",1169.996,"15","Healthy",15,40,50,3,"no","down","Right",0,"FS","FL",13,"down",619,1,"Guest15"
51,0.640487134456635,0.506102621555328,67.931022644043,136.309234619141,42.7758979797363,200,2774.003,1679.001,"Pictures_Onset",1735.001,"15","Healthy",15,40,50,3,"no","down","Right",0,"FS","FL",13,"down",619,1,"Guest15"
52,0.394500017166138,0.467555552721024,-49.3394432067871,146.02473449707,46.3111114501953,184,1242.995,216,"Pictures_Onset",203.993,"15","Healthy",15,40,50,4,"no","down","Right",1,"FL","FS",13,"down",516,1,"Guest15"
52,0.632289409637451,0.465175420045853,63.9883460998535,146.65754699707,46.5414009094238,297.997,1510.003,483.008,"Pictures_Onset",471.001,"15","Sugary",15,40,50,4,"no","down","Right",1,"FL","FS",13,"down",516,1,"Guest15"
52,0.64766663312912,0.475428581237793,71.2790451049805,144.05046081543,45.5928611755371,100.006,1841.997,815.002,"Pictures_Onset",802.995,"15","Sugary",15,40,50,4,"no","down","Right",1,"FL","FS",13,"down",516,1,"Guest15"
52,0.390416651964188,0.456527799367905,-51.2872200012207,148.856658935547,47.3413887023926,182.003,2025.997,999.002,"Pictures_Onset",986.995,"15","Healthy",15,40,50,4,"no","down","Right",1,"FL","FS",13,"down",516,1,"Guest15"
52,0.387130975723267,0.452142864465714,-52.8325080871582,149.897979736328,47.7219009399414,449.997,2240.998,1214.003,"Pictures_Onset",1201.996,"15","Healthy",15,40,50,4,"no","down","Right",1,"FL","FS",13,"down",516,1,"Guest15"
52,0.382927060127258,0.453739553689957,-54.923023223877,149.495513916016,47.5750007629395,250.341333333334,2723.66166666667,1729.66566666667,"Pictures_Onset",1717.65866666667,"15","Healthy",15,40,50,4,"no","down","Right",1,"FL","FS",13,"down",516,1,"Guest15"
53,0.387350916862488,0.528210461139679,-52.7094802856445,130.735794067383,40.7482452392578,300.006,1365.005,333.005,"Pictures_Onset",326.003,"15","Sugary",15,40,50,2,"no","up","Left",1,"FS","FL",14,"up",704,1,"Guest15"
53,0.625933349132538,0.525416731834412,60.9570007324219,131.457916259766,41.0105819702148,648,1748.006,716.006,"Pictures_Onset",709.004,"15","Healthy",15,40,50,2,"no","up","Left",1,"FS","FL",14,"up",704,1,"Guest15"
53,0.614222288131714,0.498027801513672,55.370548248291,138.343887329102,43.51611328125,183.001,2463.002,1431.002,"Pictures_Onset",1424,"15","Healthy",15,40,50,2,"no","up","Left",1,"FS","FL",14,"up",704,1,"Guest15"
53,0.557666659355164,0.520749986171722,28.4041652679443,132.624160766602,41.4337501525879,117.005,2862.003,1830.003,"Pictures_Onset",1823.001,"15","Healthy",15,40,50,2,"no","up","Left",1,"FS","FL",14,"up",704,1,"Guest15"
54,0.381296277046204,0.465518534183502,-55.6881446838379,146.505187988281,46.4877777099609,133.005,1282.995,249.997,"Pictures_Onset",243.993,"15","Healthy",15,40,50,3,"no","up","Left",0,"FL","FS",14,"up",581,1,"Guest15"
54,0.64473694562912,0.501473665237427,69.9264984130859,137.490692138672,43.2056121826172,299.008,1499.994,466.996,"Pictures_Onset",460.992,"15","Sugary",15,40,50,3,"no","up","Left",0,"FL","FS",14,"up",581,1,"Guest15"
54,0.36988091468811,0.463142871856689,-61.118335723877,147.132400512695,46.7150039672852,216.998,1881.997,848.999,"Pictures_Onset",842.995,"15","Healthy",15,40,50,3,"no","up","Left",0,"FL","FS",14,"up",581,1,"Guest15"
54,0.631051301956177,0.498717933893204,63.4241104125977,138.141540527344,43.4425659179688,200,2697.997,1664.999,"Pictures_Onset",1658.995,"15","Sugary",15,40,50,3,"no","up","Left",0,"FL","FS",14,"up",581,1,"Guest15"
55,0.619750022888184,0.49145832657814,57.9195823669434,140.034164428711,44.1316604614258,116.006,1244.992,149.99,"Pictures_Onset",205.99,"15","Healthy",15,40,50,4,"no","down","Right",0,"FS","FL",14,"down",589,1,"Guest15"
55,0.382250040769577,0.456729143857956,-55.2406272888184,148.734161376953,47.2974967956543,248.998,1444.992,349.99,"Pictures_Onset",405.99,"15","Sugary",15,40,50,4,"no","down","Right",0,"FS","FL",14,"down",589,1,"Guest15"
55,0.401694416999817,0.480277806520462,-45.9055519104004,142.807220458984,45.1397247314453,183.001,1726.989,631.987,"Pictures_Onset",687.987,"15","Sugary",15,40,50,4,"no","down","Right",0,"FS","FL",14,"down",589,1,"Guest15"
55,0.387205123901367,0.496666640043259,-52.7597427368164,138.693328857422,43.642822265625,198.989,1944,848.998,"Pictures_Onset",904.998,"15","Sugary",15,40,50,4,"no","down","Right",0,"FS","FL",14,"down",589,1,"Guest15"
55,0.39856943488121,0.497972279787064,-47.4359741210938,138.341232299805,43.5152778625488,183.002,2176,1080.998,"Pictures_Onset",1136.998,"15","Sugary",15,40,50,4,"no","down","Right",0,"FS","FL",14,"down",589,1,"Guest15"
55,0.622738182544708,0.47985714673996,59.480712890625,142.936904907227,45.1871452331543,216.998,2425.997,1330.995,"Pictures_Onset",1386.995,"15","Healthy",15,40,50,4,"no","down","Right",0,"FS","FL",14,"down",589,1,"Guest15"
55,0.391372501850128,0.450607895851135,-50.8549041748047,150.280990600586,47.8605804443359,265.997,2708.992,1613.99,"Pictures_Onset",1669.99,"15","Sugary",15,40,50,4,"no","down","Right",0,"FS","FL",14,"down",589,1,"Guest15"
56,0.396820515394211,0.478512823581696,-48.2156410217285,143.250503540039,45.3017959594727,200,1240.998,150.003,"Pictures_Onset",201.996,"15","Healthy",15,40,50,1,"no","down","Right",1,"FL","FS",14,"down",620,1,"Guest15"
56,0.640666663646698,0.499428510665894,68.0066680908203,137.963500976562,43.3779373168945,332.992,1557.005,466.01,"Pictures_Onset",518.003,"15","Sugary",15,40,50,1,"no","down","Right",1,"FL","FS",14,"down",620,1,"Guest15"
56,0.638904750347137,0.503619074821472,67.1723785400391,136.939529418945,43.0057144165039,100.007,1922.995,832,"Pictures_Onset",883.993,"15","Sugary",15,40,50,1,"no","down","Right",1,"FL","FS",14,"down",620,1,"Guest15"
56,0.659036993980408,0.526407420635223,76.7400054931641,131.196670532227,40.9148101806641,132.992,2056,965.005,"Pictures_Onset",1016.998,"15","Sugary",15,40,50,1,"no","down","Right",1,"FL","FS",14,"down",620,1,"Guest15"
56,0.389931380748749,0.455735325813293,-51.5117645263672,149.013107299805,47.4004898071289,265.997,2272.998,1182.003,"Pictures_Onset",1233.996,"15","Healthy",15,40,50,1,"no","down","Right",1,"FL","FS",14,"down",620,1,"Guest15"
56,0.644431471824646,0.509058833122253,69.781364440918,135.542953491211,42.4966697692871,265.996,2623.002,1532.007,"Pictures_Onset",1584,"15","Sugary",15,40,50,1,"no","down","Right",1,"FL","FS",14,"down",620,1,"Guest15"
57,0.415222257375717,0.464740812778473,-39.4716644287109,146.741485595703,46.5731506347656,283.008,1586.995,564.992,"Pictures_Onset",547.993,"15","Sugary",15,40,50,3,"no","up","Left",1,"FS","FL",15,"up",817,1,"Guest15"
57,0.644030332565308,0.490696996450424,69.5766677856445,140.209091186523,44.1948432922363,166.003,1953.997,931.994,"Pictures_Onset",914.995,"15","Healthy",15,40,50,3,"no","up","Left",1,"FS","FL",15,"up",817,1,"Guest15"
57,0.659300029277802,0.515483379364014,76.9221649169922,133.932830810547,41.9098281860352,316.992,2236.006,1214.003,"Pictures_Onset",1197.004,"15","Healthy",15,40,50,3,"no","up","Left",1,"FS","FL",15,"up",817,1,"Guest15"
57,0.391746014356613,0.467793643474579,-50.6190490722656,145.970962524414,46.2904777526855,331.993,2653.005,1631.002,"Pictures_Onset",1614.003,"15","Sugary",15,40,50,3,"no","up","Left",1,"FS","FL",15,"up",817,1,"Guest15"
58,0.380309551954269,0.456428587436676,-56.0199966430664,148.820709228516,47.3280982971191,215.668666666667,1365.99,332.992,"Pictures_Onset",326.988,"15","Healthy",15,40,50,4,"no","up","Left",0,"FL","FS",15,"up",509,1,"Guest15"
58,0.641000032424927,0.470291644334793,68.0862579345703,145.358337402344,46.0683326721191,116.992,1664.998,632,"Pictures_Onset",625.996,"15","Sugary",15,40,50,4,"no","up","Left",0,"FL","FS",15,"up",509,1,"Guest15"
58,0.637607157230377,0.471369057893753,66.5325012207031,145.00666809082,45.9408378601074,216.999,1813.99,780.992,"Pictures_Onset",774.988,"15","Sugary",15,40,50,4,"no","up","Left",0,"FL","FS",15,"up",509,1,"Guest15"
58,0.358698427677155,0.455126941204071,-66.4504776000977,149.158874511719,47.4517440795898,332.992,2113.997,1080.999,"Pictures_Onset",1074.995,"15","Healthy",15,40,50,4,"no","up","Left",0,"FL","FS",15,"up",509,1,"Guest15"
58,0.58859521150589,0.484440416097641,43.2198829650879,141.778579711914,44.766429901123,448.999,2530.995,1497.997,"Pictures_Onset",1491.993,"15","Sugary",15,40,50,4,"no","up","Left",0,"FL","FS",15,"up",509,1,"Guest15"
59,0.618687510490417,0.51081246137619,57.5889625549316,135.150207519531,42.3537521362305,248.999,1242.995,216,"Pictures_Onset",203.993,"15","Healthy",15,40,50,1,"no","down","Right",0,"FS","FL",15,"down",490,1,"Guest15"
59,0.381604194641113,0.47366663813591,-55.4685363769531,144.498123168945,45.7535400390625,249.997,1576,549.005,"Pictures_Onset",536.998,"15","Sugary",15,40,50,1,"no","down","Right",0,"FS","FL",15,"down",490,1,"Guest15"
59,0.644568681716919,0.509156823158264,69.8329467773438,135.520782470703,42.487060546875,266.009,1891.994,864.999,"Pictures_Onset",852.992,"15","Healthy",15,40,50,1,"no","down","Right",0,"FS","FL",15,"down",490,1,"Guest15"
59,0.636958301067352,0.509625017642975,66.3249969482422,135.410003662109,42.4475021362305,116.992,2191.002,1164.007,"Pictures_Onset",1152,"15","Healthy",15,40,50,1,"no","down","Right",0,"FS","FL",15,"down",490,1,"Guest15"
59,0.604913651943207,0.502518534660339,50.9685211181641,137.221221923828,43.1076507568359,433.011,2340.992,1313.997,"Pictures_Onset",1301.99,"15","Healthy",15,40,50,1,"no","down","Right",0,"FS","FL",15,"down",490,1,"Guest15"
59,0.394740730524063,0.473814815282822,-49.265552520752,144.449264526367,45.7366676330566,134.003,2840,1813.005,"Pictures_Onset",1800.998,"15","Sugary",15,40,50,1,"no","down","Right",0,"FS","FL",15,"down",490,1,"Guest15"
60,0.366777777671814,0.516644418239594,-62.5940017700195,133.630676269531,41.8008842468262,233.996,1330.01,299.008,"Pictures_Onset",291.008,"15","Healthy",15,40,50,2,"no","down","Right",1,"FL","FS",15,"down",678,1,"Guest15"
60,0.385099977254868,0.535366654396057,-53.8103332519531,128.951324462891,40.0973358154297,149.005,1597.005,566.003,"Pictures_Onset",558.003,"15","Healthy",15,40,50,2,"no","down","Right",1,"FL","FS",15,"down",678,1,"Guest15"
60,0.639855086803436,0.533246397972107,67.5976791381836,129.467407226562,40.2853622436523,367.001,1829.005,798.003,"Pictures_Onset",790.003,"15","Sugary",15,40,50,2,"no","down","Right",1,"FL","FS",15,"down",678,1,"Guest15"
61,0.397722214460373,0.467916697263718,-47.7855529785156,145.96028137207,46.2877807617188,184,1220.006,0,"Pictures_Onset",181.004,"15","Sugary",15,40,50,4,"no","down","Left",1,"FS","FL",16,"down",535,1,"Guest15"
61,0.627933382987976,0.464166641235352,61.9446640014648,146.862670898438,46.6149978637695,149.005,1553.997,333.991,"Pictures_Onset",514.995,"15","Healthy",15,40,50,4,"no","down","Left",1,"FS","FL",16,"down",535,1,"Guest15"
61,0.62235414981842,0.477770835161209,59.2858352661133,143.44270324707,45.3722953796387,116.338333333333,1736.66666666667,549.658666666667,"Pictures_Onset",730.662666666667,"15","Healthy",15,40,50,4,"no","down","Left",1,"FS","FL",16,"down",535,1,"Guest15"
61,0.398954570293427,0.464363574981689,-47.2107543945312,146.82438659668,46.6027221679688,533.005,1952.998,732.992,"Pictures_Onset",913.996,"15","Sugary",15,40,50,4,"no","down","Left",1,"FS","FL",16,"down",535,1,"Guest15"
62,0.393470585346222,0.485333323478699,-49.8370590209961,141.534118652344,44.6776428222656,265.997,1241.997,149.005,"Pictures_Onset",202.995,"15","Healthy",15,40,50,1,"no","down","Left",0,"FL","FS",16,"down",646,1,"Guest15"
62,0.653408527374268,0.494344055652618,74.0778579711914,139.277069091797,43.856029510498,500.006,1590.989,497.997,"Pictures_Onset",551.987,"15","Sugary",15,40,50,1,"no","down","Left",0,"FL","FS",16,"down",646,1,"Guest15"
62,0.396086931228638,0.468608677387238,-48.5875358581543,145.748809814453,46.2113075256348,367.002,2372.992,1280,"Pictures_Onset",1333.99,"15","Healthy",15,40,50,1,"no","down","Left",0,"FL","FS",16,"down",646,1,"Guest15"
62,0.425256371498108,0.474410265684128,-34.6987152099609,144.290512084961,45.681282043457,200,2771.994,1679.002,"Pictures_Onset",1732.992,"15","Healthy",15,40,50,1,"no","down","Left",0,"FL","FS",16,"down",646,1,"Guest15"
63,0.381749987602234,0.507250010967255,-55.461254119873,136.036651611328,42.6766662597656,115.993,1229.005,199.002,"Pictures_Onset",190.003,"15","Sugary",15,40,50,2,"no","up","Right",0,"FS","FL",16,"up",630,1,"Guest15"
63,0.621007978916168,0.541222274303436,58.623405456543,127.446884155273,39.5496025085449,681.997,1429.005,399.002,"Pictures_Onset",390.003,"15","Healthy",15,40,50,2,"no","up","Right",0,"FS","FL",16,"up",630,1,"Guest15"
63,0.583296358585358,0.529351890087128,40.6470413208008,130.470565795898,40.6487045288086,283.008,2160,1129.997,"Pictures_Onset",1120.998,"15","Healthy",15,40,50,2,"no","up","Right",0,"FS","FL",16,"up",630,1,"Guest15"
64,0.391399949789047,0.473022192716599,-50.8182258605957,144.621536254883,45.8004417419434,232.998,1255.002,233.012,"Pictures_Onset",216,"15","Healthy",15,40,50,3,"no","up","Right",1,"FL","FS",16,"up",508,1,"Guest15"
64,0.590333342552185,0.502848505973816,43.9890899658203,137.097885131836,43.0624237060547,167.002,1570.995,549.005,"Pictures_Onset",531.993,"15","Sugary",15,40,50,3,"no","up","Right",1,"FL","FS",16,"up",508,1,"Guest15"
64,0.622986137866974,0.501347184181213,59.5938873291016,137.50764465332,43.2120819091797,181.99,1888,866.01,"Pictures_Onset",848.998,"15","Sugary",15,40,50,3,"no","up","Right",1,"FL","FS",16,"up",508,1,"Guest15"
64,0.406666725873947,0.470420271158218,-43.5746383666992,145.272171020508,46.0379676818848,364.992,2304,1282.01,"Pictures_Onset",1264.998,"15","Healthy",15,40,50,3,"no","up","Right",1,"FL","FS",16,"up",508,1,"Guest15"
65,0.401000022888184,0.483444422483444,-46.227409362793,142.001281738281,44.8474044799805,283.008,1239.002,216,"Pictures_Onset",200,"15","Sugary",15,40,50,1,"no","down","Left",1,"FS","FL",17,"down",592,1,"Guest15"
65,0.651222169399261,0.5021111369133,73.060791015625,137.318725585938,43.1417465209961,332.007,1606.003,583.001,"Pictures_Onset",567.001,"15","Healthy",15,40,50,1,"no","down","Left",1,"FS","FL",17,"down",592,1,"Guest15"
65,0.649888873100281,0.495000004768372,72.379997253418,139.100372314453,43.7911109924316,133.99,1971.008,948.006,"Pictures_Onset",932.006,"15","Healthy",15,40,50,1,"no","down","Left",1,"FS","FL",17,"down",592,1,"Guest15"
65,0.616982460021973,0.512210488319397,56.7021026611328,134.753509521484,42.2089462280273,300.006,2137.997,1114.995,"Pictures_Onset",1098.995,"15","Healthy",15,40,50,1,"no","down","Left",1,"FS","FL",17,"down",592,1,"Guest15"
65,0.39146214723587,0.468507587909698,-50.8378067016602,145.783020019531,46.2230262756348,347.994,2555.008,1532.006,"Pictures_Onset",1516.006,"15","Sugary",15,40,50,1,"no","down","Left",1,"FS","FL",17,"down",592,1,"Guest15"
66,0.39469051361084,0.517738044261932,-49.2185745239258,133.391906738281,41.7133369445801,216,1237.005,149.005,"Pictures_Onset",198.003,"15","Healthy",15,40,50,2,"no","down","Left",0,"FL","FS",17,"down",686,1,"Guest15"
66,0.366749972105026,0.522472202777863,-62.550838470459,132.166122436523,41.2661094665527,183.001,1487.002,399.002,"Pictures_Onset",448,"15","Healthy",15,40,50,2,"no","down","Left",0,"FL","FS",17,"down",686,1,"Guest15"
66,0.625293374061584,0.532426655292511,60.6968002319336,129.675201416016,40.3609352111816,399.002,1752.998,664.998,"Pictures_Onset",713.996,"15","Sugary",15,40,50,2,"no","down","Left",0,"FL","FS",17,"down",686,1,"Guest15"
67,0.40297919511795,0.480458319187164,-45.2670860290527,142.767059326172,45.125,248.998,1221.005,166.003,"Pictures_Onset",182.003,"15","Sugary",15,40,50,3,"no","up","Right",0,"FS","FL",17,"up",525,1,"Guest15"
67,0.647166550159454,0.506703615188599,71.0742568969727,136.174255371094,42.7268524169922,281.996,1554.01,499.008,"Pictures_Onset",515.008,"15","Healthy",15,40,50,3,"no","up","Right",0,"FS","FL",17,"up",525,1,"Guest15"
67,0.6539666056633,0.497033357620239,74.336669921875,138.606674194336,43.610668182373,150.003,1870.003,815.001,"Pictures_Onset",831.001,"15","Healthy",15,40,50,3,"no","up","Right",0,"FS","FL",17,"up",525,1,"Guest15"
67,0.399411797523499,0.46547058224678,-47.0180358886719,146.533218383789,46.4966659545898,550.003,2103.002,1048,"Pictures_Onset",1064,"15","Sugary",15,40,50,3,"no","up","Right",0,"FS","FL",17,"up",525,1,"Guest15"
68,0.387711107730865,0.469799995422363,-52.5857772827148,145.447570800781,46.1011123657227,233.997,1288,266.01,"Pictures_Onset",248.998,"15","Healthy",15,40,50,4,"no","up","Right",1,"FL","FS",17,"up",628,1,"Guest15"
68,0.631125032901764,0.477249979972839,63.4079170227051,143.563461303711,45.4159698486328,383.001,1603.994,582.004,"Pictures_Onset",564.992,"15","Sugary",15,40,50,4,"no","up","Right",1,"FL","FS",17,"up",628,1,"Guest15"
68,0.627666592597961,0.462814807891846,61.7862968444824,147.191482543945,46.7355537414551,132.006,2020.992,999.002,"Pictures_Onset",981.99,"15","Sugary",15,40,50,4,"no","up","Right",1,"FL","FS",17,"up",628,1,"Guest15"
68,0.617160737514496,0.452380925416946,56.7470321655273,149.856552124023,47.7071952819824,448.999,2186.995,1165.005,"Pictures_Onset",1147.993,"15","Sugary",15,40,50,4,"no","up","Right",1,"FL","FS",17,"up",628,1,"Guest15"
68,0.362950026988983,0.455066621303558,-64.4100036621094,149.184173583984,47.4633331298828,149.99,2736,1714.01,"Pictures_Onset",1696.998,"15","Healthy",15,40,50,4,"no","up","Right",1,"FL","FS",17,"up",628,1,"Guest15"
69,0.380564153194427,0.517128229141235,-55.9876937866211,133.553588867188,41.7717933654785,198.989,1337.011,317.005,"Pictures_Onset",298.009,"15","Sugary",15,40,50,2,"no","down","Left",1,"FS","FL",18,"down",694,1,"Guest15"
69,0.624722242355347,0.553666651248932,60.4591674804688,124.355278015137,38.4247169494629,182.004,1620.006,600,"Pictures_Onset",581.004,"15","Healthy",15,40,50,2,"no","down","Left",1,"FS","FL",18,"down",694,1,"Guest15"
69,0.620861053466797,0.558333337306976,58.6313819885254,123.140007019043,37.9833335876465,183.002,1836.006,816,"Pictures_Onset",797.004,"15","Healthy",15,40,50,2,"no","down","Left",1,"FS","FL",18,"down",694,1,"Guest15"
69,0.588258445262909,0.533265233039856,43.0457801818848,129.475250244141,40.2878227233887,799.002,2052.006,1032,"Pictures_Onset",1013.004,"15","Healthy",15,40,50,2,"no","down","Left",1,"FS","FL",18,"down",694,1,"Guest15"
70,0.382874995470047,0.484041690826416,-54.8404159545898,141.888336181641,44.8058395385742,115.993,1319.002,283.008,"Pictures_Onset",280,"15","Healthy",15,40,50,3,"no","down","Left",0,"FL","FS",18,"down",595,1,"Guest15"
70,0.645196080207825,0.502019643783569,70.1368637084961,137.327835083008,43.1462745666504,265.996,1519.002,483.008,"Pictures_Onset",480,"15","Sugary",15,40,50,3,"no","down","Left",0,"FL","FS",18,"down",595,1,"Guest15"
70,0.660727262496948,0.492363631725311,77.5348434448242,139.752716064453,44.0284843444824,167.002,1900.992,864.998,"Pictures_Onset",861.99,"15","Sugary",15,40,50,3,"no","down","Left",0,"FL","FS",18,"down",595,1,"Guest15"
70,0.388974368572235,0.494307696819305,-51.9294815063477,139.269744873047,43.8540992736816,199.002,2200.998,1165.004,"Pictures_Onset",1161.996,"15","Healthy",15,40,50,3,"no","down","Left",0,"FL","FS",18,"down",595,1,"Guest15"
70,0.61269223690033,0.511025667190552,54.6935958862305,135.088195800781,42.3310279846191,199.001,2483.994,1448,"Pictures_Onset",1444.992,"15","Sugary",15,40,50,3,"no","down","Left",0,"FL","FS",18,"down",595,1,"Guest15"
71,0.410333305597305,0.466055601835251,-41.8330574035645,146.389999389648,46.4444427490234,184,1232.998,33.9960000000001,"Pictures_Onset",193.996,"15","Sugary",15,40,50,4,"no","up","Right",0,"FS","FL",18,"up",689,1,"Guest15"
71,0.634142816066742,0.475595235824585,64.8642807006836,143.999542236328,45.5735702514648,214.989,1483.008,284.006,"Pictures_Onset",444.006,"15","Healthy",15,40,50,4,"no","up","Right",0,"FS","FL",18,"up",689,1,"Guest15"
71,0.632564127445221,0.485923081636429,64.1774368286133,141.413070678711,44.6315383911133,200,1732.006,533.004,"Pictures_Onset",693.004,"15","Healthy",15,40,50,4,"no","up","Right",0,"FS","FL",18,"up",689,1,"Guest15"
71,0.614423036575317,0.490487158298492,55.4775619506836,140.247299194336,44.2091026306152,415.002,1966.003,767.001,"Pictures_Onset",927.001,"15","Healthy",15,40,50,4,"no","up","Right",0,"FS","FL",18,"up",689,1,"Guest15"
71,0.4388148188591,0.472629606723785,-28.2337036132812,144.766677856445,45.8544464111328,134.003,2447.002,1248,"Pictures_Onset",1408,"15","Sugary",15,40,50,4,"no","up","Right",0,"FS","FL",18,"up",689,1,"Guest15"
71,0.397052586078644,0.461982429027557,-48.195613861084,147.412811279297,46.8170166015625,298.995,2631.002,1432,"Pictures_Onset",1592,"15","Sugary",15,40,50,4,"no","up","Right",0,"FS","FL",18,"up",689,1,"Guest15"
72,0.389962941408157,0.496333330869675,-51.4225921630859,138.747039794922,43.6629638671875,133.005,1436.992,415.002,"Pictures_Onset",397.99,"15","Healthy",15,40,50,1,"no","up","Right",1,"FL","FS",18,"up",658,1,"Guest15"
72,0.637376844882965,0.521855115890503,66.480583190918,132.344802856445,41.3337669372559,366.003,1636.992,615.002,"Pictures_Onset",597.99,"15","Sugary",15,40,50,1,"no","up","Right",1,"FL","FS",18,"up",658,1,"Guest15"
72,0.635208368301392,0.520624995231628,65.348747253418,132.640625,41.4408340454102,249.996,2035.994,1014.004,"Pictures_Onset",996.992,"15","Sugary",15,40,50,1,"no","up","Right",1,"FL","FS",18,"up",658,1,"Guest15"
72,0.379063546657562,0.480079382658005,-56.7198371887207,142.855880737305,45.1584091186523,333.005,2618.995,1597.005,"Pictures_Onset",1579.993,"15","Healthy",15,40,50,1,"no","up","Right",1,"FL","FS",18,"up",658,1,"Guest15"
73,0.40386113524437,0.471694439649582,-44.9033317565918,144.996383666992,45.9366645812988,183.002,1281.011,250.009,"Pictures_Onset",242.009,"15","Sugary",15,40,50,3,"no","down","Left",1,"FS","FL",19,"down",622,1,"Guest15"
73,0.63835996389389,0.50357323884964,66.8545379638672,136.962936401367,43.0134658813477,399.002,1548.006,517.004,"Pictures_Onset",509.004,"15","Healthy",15,40,50,3,"no","down","Left",1,"FS","FL",19,"down",622,1,"Guest15"
73,0.667242467403412,0.478030294179916,80.6375732421875,143.376968383789,45.3493995666504,166.003,1997.005,966.003,"Pictures_Onset",958.003,"15","Healthy",15,40,50,3,"no","down","Left",1,"FS","FL",19,"down",622,1,"Guest15"
73,0.420666575431824,0.468876570463181,-36.8876495361328,145.692596435547,46.191234588623,432.998,2229.005,1198.003,"Pictures_Onset",1190.003,"15","Sugary",15,40,50,3,"no","down","Left",1,"FS","FL",19,"down",622,1,"Guest15"
73,0.421537041664124,0.477166652679443,-36.4981536865234,143.577209472656,45.4207458496094,283.008,2695.002,1664,"Pictures_Onset",1656,"15","Sugary",15,40,50,3,"no","down","Left",1,"FS","FL",19,"down",622,1,"Guest15"
74,0.399388879537582,0.465055555105209,-47.0224456787109,146.621002197266,46.5273323059082,233.330333333333,1251.66166666667,266.676666666667,"Pictures_Onset",246.669666666667,"15","Healthy",15,40,50,4,"no","down","Left",0,"FL","FS",19,"down",395,1,"Guest15"
74,0.645240724086761,0.47256475687027,70.1908340454102,144.751770019531,45.8486099243164,282.996,1568.998,550.003,"Pictures_Onset",529.996,"15","Sugary",15,40,50,4,"no","down","Left",0,"FL","FS",19,"down",395,1,"Guest15"
74,0.39770832657814,0.452078700065613,-47.8490753173828,149.911209106445,47.7260131835938,582.004,1984.998,966.003,"Pictures_Onset",945.996,"15","Healthy",15,40,50,4,"no","down","Left",0,"FL","FS",19,"down",395,1,"Guest15"
74,0.59205561876297,0.476277768611908,44.7885208129883,143.833679199219,45.5133323669434,282.01,2700.992,1681.997,"Pictures_Onset",1661.99,"15","Sugary",15,40,50,4,"no","down","Left",0,"FL","FS",19,"down",395,1,"Guest15"
75,0.398777812719345,0.479972213506699,-47.4088897705078,142.904159545898,45.1749992370605,184,1216.998,183.001,"Pictures_Onset",177.996,"15","Sugary",15,40,50,1,"no","up","Right",0,"FS","FL",19,"up",468,1,"Guest15"
75,0.636228084564209,0.504456102848053,65.8966674804688,136.744735717773,42.9345588684082,300.007,1482.995,448.998,"Pictures_Onset",443.993,"15","Healthy",15,40,50,1,"no","up","Right",0,"FS","FL",19,"up",468,1,"Guest15"
75,0.631733417510986,0.506186664104462,63.7915954589844,136.287734985352,42.7678604125977,399.002,1816.998,783.001,"Pictures_Onset",777.996,"15","Healthy",15,40,50,1,"no","up","Right",0,"FS","FL",19,"up",468,1,"Guest15"
75,0.375344812870026,0.472045987844467,-58.4532165527344,144.907684326172,45.9047088623047,465.997,2298.995,1264.998,"Pictures_Onset",1259.993,"15","Sugary",15,40,50,1,"no","up","Right",0,"FS","FL",19,"up",468,1,"Guest15"
75,0.607222259044647,0.498185217380524,52.005184173584,138.277770996094,43.4922218322754,132.992,2848,1814.003,"Pictures_Onset",1808.998,"15","Healthy",15,40,50,1,"no","up","Right",0,"FS","FL",19,"up",468,1,"Guest15"
76,0.575568675994873,0.55231374502182,36.9529418945312,124.660400390625,38.535099029541,267.008,1246.003,216,"Pictures_Onset",207.001,"15","Sugary",15,40,50,2,"no","up","Right",1,"FL","FS",19,"up",661,1,"Guest15"
76,0.621733367443085,0.536199927330017,59.0576667785645,128.720001220703,40.0130004882812,149.005,1580.006,550.003,"Pictures_Onset",541.004,"15","Sugary",15,40,50,2,"no","up","Right",1,"FL","FS",19,"up",661,1,"Guest15"
76,0.361481517553329,0.532018542289734,-65.0731506347656,129.765914916992,40.3944473266602,282.996,1812.006,782.003,"Pictures_Onset",773.004,"15","Healthy",15,40,50,2,"no","up","Right",1,"FL","FS",19,"up",661,1,"Guest15"
76,0.349999964237213,0.555571436882019,-70.5128631591797,123.834999084473,38.2361946105957,216.013,2128,1097.997,"Pictures_Onset",1088.998,"15","Healthy",15,40,50,2,"no","up","Right",1,"FL","FS",19,"up",661,1,"Guest15"
76,0.436393946409225,0.531696975231171,-29.3318157196045,129.838180541992,40.4206085205078,167.002,2411.008,1381.005,"Pictures_Onset",1372.006,"15","Healthy",15,40,50,2,"no","up","Right",1,"FL","FS",19,"up",661,1,"Guest15"
77,0.405129641294479,0.453185200691223,-44.2455596923828,149.64241027832,47.624813079834,133.005,1249.997,216,"Pictures_Onset",210.995,"15","Sugary",15,40,50,4,"no","down","Left",1,"FS","FL",20,"down",444,1,"Guest15"
77,0.646758675575256,0.474356293678284,70.885856628418,144.277679443359,45.6750602722168,465.997,1482.995,448.998,"Pictures_Onset",443.993,"15","Healthy",15,40,50,4,"no","down","Left",1,"FS","FL",20,"down",444,1,"Guest15"
77,0.36320686340332,0.433287382125854,-64.3136901855469,154.663925170898,49.4562034606934,465.997,2032,998.003,"Pictures_Onset",992.998,"15","Sugary",15,40,50,4,"no","down","Left",1,"FS","FL",20,"down",444,1,"Guest15"
77,0.383240729570389,0.494000017642975,-54.7066688537598,139.376480102539,43.8925933837891,133.004,2547.994,1513.997,"Pictures_Onset",1508.992,"15","Sugary",15,40,50,4,"no","down","Left",1,"FS","FL",20,"down",444,1,"Guest15"
77,0.556282103061676,0.494102537631989,27.8270530700684,139.326416015625,43.8721771240234,200,2780.992,1746.995,"Pictures_Onset",1741.99,"15","Healthy",15,40,50,4,"no","down","Left",1,"FS","FL",20,"down",444,1,"Guest15"
78,0.381444483995438,0.479733347892761,-55.550666809082,142.955108642578,45.1935577392578,232.999,1348.006,316.006,"Pictures_Onset",309.004,"15","Healthy",15,40,50,1,"no","down","Left",0,"FL","FS",20,"down",450,1,"Guest15"
78,0.37764099240303,0.476615369319916,-57.4008255004883,143.75373840332,45.4848785400391,415.001,1615.002,583.002,"Pictures_Onset",576,"15","Healthy",15,40,50,1,"no","down","Left",0,"FL","FS",20,"down",450,1,"Guest15"
78,0.600405752658844,0.498188406229019,48.7863807678223,138.289398193359,43.4969520568848,366.003,2113.997,1081.997,"Pictures_Onset",1074.995,"15","Sugary",15,40,50,1,"no","down","Left",0,"FL","FS",20,"down",450,1,"Guest15"
78,0.5988889336586,0.486861109733582,48.0538902282715,141.177780151367,44.5472259521484,182.003,2513.997,1481.997,"Pictures_Onset",1474.995,"15","Sugary",15,40,50,1,"no","down","Left",0,"FL","FS",20,"down",450,1,"Guest15"
78,0.577437520027161,0.466312497854233,37.8818740844727,146.327911376953,46.4216690063477,249.997,2728.998,1696.998,"Pictures_Onset",1689.996,"15","Sugary",15,40,50,1,"no","down","Left",0,"FL","FS",20,"down",450,1,"Guest15"
79,0.618569910526276,0.551892518997192,57.5032234191895,124.757629394531,38.5716209411621,499.008,1247.002,216,"Pictures_Onset",208,"15","Healthy",15,40,50,2,"no","up","Right",0,"FS","FL",20,"up",766,1,"Guest15"
79,0.362388879060745,0.511638939380646,-64.6961059570312,134.888320922852,42.2586097717285,184,1812.006,781.004,"Pictures_Onset",773.004,"15","Sugary",15,40,50,2,"no","up","Right",0,"FS","FL",20,"up",766,1,"Guest15"
79,0.639500021934509,0.536833345890045,67.4349975585938,128.576675415039,39.9600028991699,116.006,2079.002,1048,"Pictures_Onset",1040,"15","Healthy",15,40,50,2,"no","up","Right",0,"FS","FL",20,"up",766,1,"Guest15"
79,0.633895814418793,0.548812448978424,64.841667175293,125.571250915527,38.8672904968262,249.997,2228.006,1197.004,"Pictures_Onset",1189.004,"15","Healthy",15,40,50,2,"no","up","Right",0,"FS","FL",20,"up",766,1,"Guest15"
80,0.37584125995636,0.449857175350189,-58.2541275024414,150.467010498047,47.927619934082,333.005,1321.997,299.994,"Pictures_Onset",282.995,"15","Healthy",15,40,50,3,"no","up","Right",1,"FL","FS",20,"up",537,1,"Guest15"
80,0.365488886833191,0.475311130285263,-63.180004119873,144.062454223633,45.5975570678711,232,1688.998,666.995,"Pictures_Onset",649.996,"15","Healthy",15,40,50,3,"no","up","Right",1,"FL","FS",20,"up",537,1,"Guest15"
80,0.64954549074173,0.452424228191376,72.2790832519531,149.834533691406,47.698486328125,166.003,2088,1065.997,"Pictures_Onset",1048.998,"15","Sugary",15,40,50,3,"no","up","Right",1,"FL","FS",20,"up",537,1,"Guest15"
80,0.377000004053116,0.45131254196167,-57.691463470459,150.120819091797,47.8033332824707,250.01,2402.995,1380.992,"Pictures_Onset",1363.993,"15","Healthy",15,40,50,3,"no","up","Right",1,"FL","FS",20,"up",537,1,"Guest15"
80,0.395877152681351,0.499280720949173,-48.6573715209961,138.013168334961,43.396312713623,298.995,2687.002,1664.999,"Pictures_Onset",1648,"15","Healthy",15,40,50,3,"no","up","Right",1,"FL","FS",20,"up",537,1,"Guest15"
