"trial_id","sx","sy","px","py","pz","duration","timestamp","trial_onset","label","label_onset","subject_nr.x","AOI_visited","subject_nr.y","fat_craving","sugar_craving","Block","practice","Arrow_Direction","Arrow_Position","Congruence","Left_Picture","Right_Picture","Pair_Number","response","response_time","accuracy","part_ID"
1,0.389980316162109,0.473039239645004,-52.5609817504883,145.480010986328,46.1139183044434,265.997,1232,200,"Pictures_Onset",171.994,"10","Salty",10,50,65,1,"no","up","Left",1,"FF","FL",1,"up",584,1,"Guest10"
1,0.634073972702026,0.48846298456192,62.6351852416992,141.643142700195,44.7170372009277,281.997,1715.008,683.008,"Pictures_Onset",655.002,"10","Healthy",10,50,65,1,"no","up","Left",1,"FF","FL",1,"up",584,1,"Guest10"
1,0.62954843044281,0.448602110147476,60.4619293212891,151.564315795898,48.326774597168,500.007,2030.003,998.003,"Pictures_Onset",969.997,"10","Healthy",10,50,65,1,"no","up","Left",1,"FF","FL",1,"up",584,1,"Guest10"
1,0.602349996566772,0.482316672801971,47.6528358459473,143.169326782227,45.272331237793,315.994,2580.006,1548.006,"Pictures_Onset",1520,"10","Healthy",10,50,65,1,"no","up","Left",1,"FF","FL",1,"up",584,1,"Guest10"
2,0.405395835638046,0.471229135990143,-45.2237548828125,145.933120727539,46.2783317565918,249.997,1024.998,0,"Pictures_Onset",-35.008,"10","Healthy",10,50,65,2,"no","up","Left",0,"FL","FF",1,"up",460,1,"Guest10"
2,0.551500022411346,0.48226672410965,23.6493339538574,143.139678955078,45.2620010375977,150.003,1340.992,315.994,"Pictures_Onset",280.986,"10","Salty",10,50,65,2,"no","up","Left",0,"FL","FF",1,"up",460,1,"Guest10"
2,0.622536301612854,0.478855103254318,57.1762313842773,144.008682250977,45.5771064758301,366.003,1540.992,515.994,"Pictures_Onset",480.986,"10","Salty",10,50,65,2,"no","up","Left",0,"FL","FF",1,"up",460,1,"Guest10"
2,0.414589732885361,0.465487211942673,-41.0161514282227,147.334625244141,46.7864112854004,200,1989.99,964.992,"Pictures_Onset",929.984,"10","Healthy",10,50,65,2,"no","up","Left",0,"FL","FF",1,"up",460,1,"Guest10"
2,0.547392070293427,0.490333318710327,21.6827449798584,141.184326171875,44.5482368469238,265.997,2256,1231.002,"Pictures_Onset",1195.994,"10","Salty",10,50,65,2,"no","up","Left",0,"FL","FF",1,"up",460,1,"Guest10"
2,0.436199992895126,0.470700025558472,-30.6380004882812,146.055328369141,46.3223342895508,149.005,2589.99,1564.992,"Pictures_Onset",1529.984,"10","Healthy",10,50,65,2,"no","up","Left",0,"FL","FF",1,"up",460,1,"Guest10"
4,0.385333359241486,0.487616628408432,-54.7663345336914,141.831832885742,44.7859992980957,315.993,1466.01,432,"Pictures_Onset",406.004,"10","Healthy",10,50,65,4,"no","down","Right",1,"FL","FF",1,"down",484,1,"Guest10"
4,0.386527866125107,0.488638877868652,-54.1547241210938,141.598892211914,44.7011108398438,182.989,1816.013,782.003,"Pictures_Onset",756.007,"10","Healthy",10,50,65,4,"no","down","Right",1,"FL","FF",1,"down",484,1,"Guest10"
4,0.581533312797546,0.495733350515366,37.8219985961914,139.858993530273,44.0683326721191,149.991,2065.011,1031.001,"Pictures_Onset",1005.005,"10","Salty",10,50,65,4,"no","down","Right",1,"FL","FF",1,"down",484,1,"Guest10"
4,0.448979139328003,0.53062504529953,-24.7487487792969,131.137710571289,40.8939590454102,250.01,2414.003,1379.993,"Pictures_Onset",1353.997,"10","Healthy",10,50,65,4,"no","down","Right",1,"FL","FF",1,"down",484,1,"Guest10"
5,0.390076845884323,0.484282046556473,-52.513069152832,142.685394287109,45.0958938598633,199.001,1498.01,465.997,"Pictures_Onset",438.004,"10","Salty",10,50,65,2,"no","up","Left",1,"FF","FL",2,"up",494,1,"Guest10"
5,0.648571491241455,0.469500005245209,69.4409408569336,146.35807800293,46.432861328125,216,1981.005,948.992,"Pictures_Onset",920.999,"10","Healthy",10,50,65,2,"no","up","Left",1,"FF","FL",2,"up",494,1,"Guest10"
5,0.451256394386292,0.502410173416138,-23.5905132293701,138.184112548828,43.4556427001953,200,2263.002,1230.989,"Pictures_Onset",1202.996,"10","Salty",10,50,65,2,"no","up","Left",1,"FF","FL",2,"up",494,1,"Guest10"
6,0.592841386795044,0.496587306261063,43.1187324523926,139.613342285156,43.9763488769531,332.006,2347.994,1313.997,"Pictures_Onset",1287.988,"10","Salty",10,50,65,3,"no","up","Left",0,"FL","FF",2,"up",524,1,"Guest10"
6,0.592980325222015,0.498196095228195,43.1433334350586,139.235702514648,43.8400039672852,265.997,2713.997,1680,"Pictures_Onset",1653.991,"10","Salty",10,50,65,3,"no","up","Left",0,"FL","FF",2,"up",524,1,"Guest10"
7,0.414138913154602,0.467777758836746,-41.1061096191406,146.780563354492,46.5877723693848,184,1272,248.998,"Pictures_Onset",211.994,"10","Salty",10,50,65,4,"no","down","Right",0,"FF","FL",2,"down",498,1,"Guest10"
7,0.631428599357605,0.479880958795547,61.3659553527832,143.802368164062,45.5033302307129,215.002,1522.995,499.993,"Pictures_Onset",462.989,"10","Healthy",10,50,65,4,"no","down","Right",0,"FF","FL",2,"down",498,1,"Guest10"
7,0.642222225666046,0.50388890504837,66.3455581665039,137.745559692383,43.2988891601562,150.003,1771.994,748.992,"Pictures_Onset",711.988,"10","Healthy",10,50,65,4,"no","down","Right",0,"FF","FL",2,"down",498,1,"Guest10"
7,0.649320006370544,0.470186650753021,69.8115997314453,146.199996948242,46.3749313354492,399.001,1955.994,932.992,"Pictures_Onset",895.988,"10","Healthy",10,50,65,4,"no","down","Right",0,"FF","FL",2,"down",498,1,"Guest10"
7,0.412714272737503,0.490790456533432,-41.8210487365723,141.079162597656,44.5118103027344,565.005,2420.992,1397.99,"Pictures_Onset",1360.986,"10","Salty",10,50,65,4,"no","down","Right",0,"FF","FL",2,"down",498,1,"Guest10"
8,0.384266644716263,0.493266671895981,-55.2403335571289,140.457336425781,44.2853317260742,149.99,1823.002,799.002,"Pictures_Onset",762.996,"10","Healthy",10,50,65,1,"no","down","Right",1,"FL","FF",2,"down",476,1,"Guest10"
8,0.383346140384674,0.498352497816086,-55.6707000732422,139.181289672852,43.8209648132324,848.998,2004.992,980.992,"Pictures_Onset",944.986,"10","Healthy",10,50,65,1,"no","down","Right",1,"FL","FF",2,"down",476,1,"Guest10"
9,0.412010431289673,0.522968709468842,-42.1684417724609,133.054885864258,41.590518951416,516.006,1028.992,0,"Pictures_Onset",-31.0140000000001,"10","Salty",10,50,65,3,"no","up","Left",1,"FF","FL",3,"up",529,1,"Guest10"
9,0.401589691638947,0.506917953491211,-47.0694770812988,137.057037353516,43.0472869873047,1065.011,1844.992,816,"Pictures_Onset",784.986,"10","Salty",10,50,65,3,"no","up","Left",1,"FF","FL",3,"up",529,1,"Guest10"
10,0.395333290100098,0.479370325803757,-50.0618553161621,143.903884887695,45.5411186218262,284.007,1242.995,215.001,"Pictures_Onset",182.989,"10","Healthy",10,50,65,4,"no","up","Left",0,"FL","FF",3,"up",521,1,"Guest10"
10,0.620030224323273,0.464727282524109,55.9742431640625,147.535461425781,46.8612098693848,166.003,1609.997,582.003,"Pictures_Onset",549.991,"10","Salty",10,50,65,4,"no","up","Left",0,"FL","FF",3,"up",521,1,"Guest10"
10,0.381545454263687,0.4968181848526,-56.4748497009277,139.598480224609,43.9736328125,166.003,1859.994,832,"Pictures_Onset",799.988,"10","Healthy",10,50,65,4,"no","up","Left",0,"FL","FF",3,"up",521,1,"Guest10"
10,0.602777779102325,0.475422233343124,47.8051109313965,144.873779296875,45.8931159973145,233.011,2108.992,1080.998,"Pictures_Onset",1048.986,"10","Salty",10,50,65,4,"no","up","Left",0,"FL","FF",3,"up",521,1,"Guest10"
10,0.631648659706116,0.488684684038162,61.4856758117676,141.569274902344,44.6906318664551,599.001,2375.002,1347.008,"Pictures_Onset",1314.996,"10","Salty",10,50,65,4,"no","up","Left",0,"FL","FF",3,"up",521,1,"Guest10"
11,0.398714274168015,0.472880989313126,-48.4178581237793,145.51904296875,46.1273765563965,216,2119.002,1064.999,"Pictures_Onset",1058.996,"10","Salty",10,50,65,1,"no","down","Right",0,"FF","FL",3,"down",486,1,"Guest10"
11,0.618416607379913,0.476027816534042,55.1819458007812,144.741943359375,45.8438873291016,182.988,2402.01,1348.007,"Pictures_Onset",1342.004,"10","Healthy",10,50,65,1,"no","down","Right",0,"FF","FL",3,"down",486,1,"Guest10"
12,0.571333289146423,0.478088915348053,33.0202217102051,144.202438354492,45.6486663818359,232.999,1740.006,716.006,"Pictures_Onset",680,"10","Salty",10,50,65,2,"no","down","Right",1,"FL","FF",3,"down",501,1,"Guest10"
13,0.605791628360748,0.45949998497963,49.2116661071777,148.8466796875,47.3395843505859,116.992,1646.003,615.001,"Pictures_Onset",585.997,"10","Healthy",10,50,65,4,"no","up","Left",1,"FF","FL",4,"up",515,1,"Guest10"
13,0.603958368301392,0.47941666841507,48.3549995422363,143.931243896484,45.5500030517578,117.004,1795.994,764.992,"Pictures_Onset",735.988,"10","Healthy",10,50,65,4,"no","up","Left",1,"FF","FL",4,"up",515,1,"Guest10"
13,0.403333365917206,0.472312569618225,-46.208122253418,145.677291870117,46.1841659545898,249.997,1978.995,947.993,"Pictures_Onset",918.989,"10","Salty",10,50,65,4,"no","up","Left",1,"FF","FL",4,"up",515,1,"Guest10"
13,0.575541615486145,0.458958327770233,34.9560394287109,148.944381713867,47.3743705749512,249.996,2295.002,1264,"Pictures_Onset",1234.996,"10","Healthy",10,50,65,4,"no","up","Left",1,"FF","FL",4,"up",515,1,"Guest10"
13,0.557777762413025,0.469333291053772,26.5588912963867,146.428527832031,46.4588851928711,133.005,2661.99,1630.988,"Pictures_Onset",1601.984,"10","Healthy",10,50,65,4,"no","up","Left",1,"FF","FL",4,"up",515,1,"Guest10"
13,0.598222196102142,0.477000027894974,45.6537017822266,144.517761230469,45.7622222900391,133.005,2844.992,1813.99,"Pictures_Onset",1784.986,"10","Healthy",10,50,65,4,"no","up","Left",1,"FF","FL",4,"up",515,1,"Guest10"
14,0.615849912166595,0.4619500041008,53.9613265991211,148.20068359375,47.1041679382324,316.006,1852.992,831.002,"Pictures_Onset",792.986,"10","Salty",10,50,65,1,"no","up","Left",0,"FL","FF",4,"up",419,1,"Guest10"
14,0.436182767152786,0.504311800003052,-30.7588157653809,137.721710205078,43.2888221740723,498.995,2319.002,1297.012,"Pictures_Onset",1258.996,"10","Healthy",10,50,65,1,"no","up","Left",0,"FL","FF",4,"up",419,1,"Guest10"
14,0.437333345413208,0.502296328544617,-30.1507396697998,138.274826049805,43.4918518066406,134.003,2850.995,1829.005,"Pictures_Onset",1790.989,"10","Healthy",10,50,65,1,"no","up","Left",0,"FL","FF",4,"up",419,1,"Guest10"
17,0.39234784245491,0.498057991266251,-51.4426155090332,139.243774414062,43.8446426391602,365.005,1533.99,498.995,"Pictures_Onset",473.984,"10","Salty",10,50,65,1,"no","up","Left",1,"FF","FL",5,"up",529,1,"Guest10"
17,0.41566663980484,0.453574061393738,-40.4327774047852,150.316680908203,47.8742599487305,282.01,1932.992,897.997,"Pictures_Onset",872.986,"10","Salty",10,50,65,1,"no","up","Left",1,"FF","FL",5,"up",529,1,"Guest10"
17,0.576178550720215,0.489845246076584,35.261547088623,141.303573608398,44.5932083129883,449.996,2347.994,1312.999,"Pictures_Onset",1287.988,"10","Healthy",10,50,65,1,"no","up","Left",1,"FF","FL",5,"up",529,1,"Guest10"
17,0.577000021934509,0.4942666888237,35.7013320922852,140.251998901367,44.2113342285156,149.99,2832,1797.005,"Pictures_Onset",1771.994,"10","Healthy",10,50,65,1,"no","up","Left",1,"FF","FL",5,"up",529,1,"Guest10"
18,0.611888885498047,0.485755532979965,52.1277809143066,142.330230712891,44.9659996032715,234.009,1990.989,964.992,"Pictures_Onset",930.983,"10","Salty",10,50,65,2,"no","up","Left",0,"FL","FF",5,"up",500,1,"Guest10"
18,0.444636344909668,0.503909051418304,-26.727876663208,137.783020019531,43.3112144470215,168,2289.997,1264,"Pictures_Onset",1229.991,"10","Healthy",10,50,65,2,"no","up","Left",0,"FL","FF",5,"up",500,1,"Guest10"
18,0.573363542556763,0.495878785848618,33.9390907287598,139.770599365234,44.0351524353027,166.003,2523.994,1497.997,"Pictures_Onset",1463.988,"10","Salty",10,50,65,2,"no","up","Left",0,"FL","FF",5,"up",500,1,"Guest10"
18,0.450259268283844,0.501370310783386,-24.0374069213867,138.427780151367,43.5477752685547,134.003,2738.995,1712.998,"Pictures_Onset",1678.989,"10","Healthy",10,50,65,2,"no","up","Left",0,"FL","FF",5,"up",500,1,"Guest10"
19,0.392888903617859,0.495037078857422,-51.1937026977539,140.008514404297,44.1229629516602,133.004,1315.994,232,"Pictures_Onset",255.988,"10","Salty",10,50,65,3,"no","down","Right",0,"FF","FL",5,"down",482,1,"Guest10"
19,0.636000037193298,0.498402804136276,63.4809722900391,139.148071289062,43.8081932067871,381.99,1533.005,449.011,"Pictures_Onset",472.999,"10","Healthy",10,50,65,3,"no","down","Right",0,"FF","FL",5,"down",482,1,"Guest10"
19,0.432416558265686,0.500134587287903,-32.4888458251953,138.731201171875,43.656982421875,848.999,1998.003,914.009,"Pictures_Onset",937.997,"10","Salty",10,50,65,3,"no","down","Right",0,"FF","FL",5,"down",482,1,"Guest10"
20,0.390416592359543,0.474722176790237,-52.3144493103027,145.072357177734,45.9659690856934,382.003,1479.002,449.997,"Pictures_Onset",418.996,"10","Healthy",10,50,65,4,"no","down","Right",1,"FL","FF",5,"down",537,1,"Guest10"
20,0.391916632652283,0.479291617870331,-51.6470832824707,143.899169921875,45.5370826721191,249.997,1894.003,864.998,"Pictures_Onset",833.997,"10","Healthy",10,50,65,4,"no","down","Right",1,"FL","FF",5,"down",537,1,"Guest10"
20,0.582743585109711,0.501128256320953,38.3987159729004,138.48616027832,43.5666656494141,200,2226.995,1197.99,"Pictures_Onset",1166.989,"10","Salty",10,50,65,4,"no","down","Right",1,"FL","FF",5,"down",537,1,"Guest10"
20,0.377615392208099,0.486692309379578,-58.3858985900879,142.093856811523,44.880256652832,199.002,2494.003,1464.998,"Pictures_Onset",1433.997,"10","Healthy",10,50,65,4,"no","down","Right",1,"FL","FF",5,"down",537,1,"Guest10"
21,0.384102612733841,0.476782113313675,-55.2559013366699,144.542068481445,45.7721786499023,416,1393.997,365.991,"Pictures_Onset",333.991,"10","Salty",10,50,65,2,"no","down","Left",1,"FF","FL",6,"down",517,1,"Guest10"
21,0.568357169628143,0.489523828029633,31.5914306640625,141.369750976562,44.615478515625,216,1877.005,848.999,"Pictures_Onset",816.999,"10","Healthy",10,50,65,2,"no","down","Left",1,"FF","FL",6,"down",517,1,"Guest10"
22,0.634229123592377,0.491937518119812,62.669792175293,140.753952026367,44.3935470581055,248.998,1456,432,"Pictures_Onset",395.994,"10","Salty",10,50,65,3,"no","down","Left",0,"FL","FF",6,"down",558,1,"Guest10"
22,0.396708339452744,0.481749981641769,-49.3512496948242,143.291244506836,45.3166656494141,116.006,1788.992,764.992,"Pictures_Onset",728.986,"10","Healthy",10,50,65,3,"no","down","Left",0,"FL","FF",6,"down",558,1,"Guest10"
22,0.420566707849503,0.466666638851166,-38.129997253418,147.066650390625,46.6896705627441,149.005,2121.997,1097.997,"Pictures_Onset",1061.991,"10","Healthy",10,50,65,3,"no","down","Left",0,"FL","FF",6,"down",558,1,"Guest10"
22,0.64169055223465,0.495666682720184,66.1995162963867,139.876907348633,44.0750045776367,216,2338.995,1314.995,"Pictures_Onset",1278.989,"10","Salty",10,50,65,3,"no","down","Left",0,"FL","FF",6,"down",558,1,"Guest10"
22,0.450041592121124,0.501083314418793,-24.1743774414062,138.515426635742,43.5787467956543,248.998,2620.992,1596.992,"Pictures_Onset",1560.986,"10","Healthy",10,50,65,3,"no","down","Left",0,"FL","FF",6,"down",558,1,"Guest10"
23,0.400499999523163,0.468633323907852,-47.6096611022949,146.564331054688,46.5076675415039,149.005,1265.997,200.999,"Pictures_Onset",205.991,"10","Salty",10,50,65,4,"no","up","Right",0,"FF","FL",6,"up",466,1,"Guest10"
23,0.638440489768982,0.467654764652252,64.6451187133789,146.802856445312,46.5948829650879,448.999,1498.995,433.997,"Pictures_Onset",438.989,"10","Healthy",10,50,65,4,"no","up","Right",0,"FF","FL",6,"up",466,1,"Guest10"
23,0.403051316738129,0.465269207954407,-46.3819236755371,147.418319702148,46.8188400268555,416,2014.003,949.005,"Pictures_Onset",953.997,"10","Salty",10,50,65,4,"no","up","Right",0,"FF","FL",6,"up",466,1,"Guest10"
23,0.587384641170502,0.476205050945282,40.5905151367188,144.684112548828,45.8228187561035,200,2496.998,1432,"Pictures_Onset",1436.992,"10","Healthy",10,50,65,4,"no","up","Right",0,"FF","FL",6,"up",466,1,"Guest10"
23,0.58875560760498,0.484377801418304,41.2573318481445,142.653549194336,45.0842208862305,232.999,2728.998,1664,"Pictures_Onset",1668.992,"10","Healthy",10,50,65,4,"no","up","Right",0,"FF","FL",6,"up",466,1,"Guest10"
24,0.411888927221298,0.464955598115921,-42.2151069641113,147.477767944336,46.8393363952637,232.998,1025.997,0,"Pictures_Onset",-34.009,"10","Healthy",10,50,65,1,"no","up","Right",1,"FL","FF",6,"up",533,1,"Guest10"
24,0.639384567737579,0.473358958959579,65.1164093017578,145.440002441406,46.0989799499512,199.002,1325.99,299.993,"Pictures_Onset",265.984,"10","Salty",10,50,65,1,"no","up","Right",1,"FL","FF",6,"up",533,1,"Guest10"
24,0.390559911727905,0.466520041227341,-52.2563972473145,147.097076416016,46.7025337219238,399.002,1924.992,898.995,"Pictures_Onset",864.986,"10","Healthy",10,50,65,1,"no","up","Right",1,"FL","FF",6,"up",533,1,"Guest10"
24,0.404090881347656,0.443909078836441,-45.8963623046875,152.703628540039,48.7418212890625,167.002,2356.992,1330.995,"Pictures_Onset",1296.986,"10","Healthy",10,50,65,1,"no","up","Right",1,"FL","FF",6,"up",533,1,"Guest10"
24,0.625921547412872,0.464058816432953,58.7835350036621,147.715301513672,46.9270515441895,267.008,2605.99,1579.993,"Pictures_Onset",1545.984,"10","Salty",10,50,65,1,"no","up","Right",1,"FL","FF",6,"up",533,1,"Guest10"
25,0.369564086198807,0.478461563587189,-62.155891418457,144.152572631836,45.6312789916992,199.987,1439.002,415.002,"Pictures_Onset",378.996,"10","Salty",10,50,65,3,"no","down","Left",1,"FF","FL",7,"down",509,1,"Guest10"
25,0.36910417675972,0.471479177474976,-62.3675003051758,145.872909545898,46.257080078125,248.998,1672,648,"Pictures_Onset",611.994,"10","Salty",10,50,65,3,"no","down","Left",1,"FF","FL",7,"down",509,1,"Guest10"
25,0.568929851055145,0.494824558496475,31.8528060913086,140.070190429688,44.1435050964355,300.006,2004.992,980.992,"Pictures_Onset",944.986,"10","Healthy",10,50,65,3,"no","down","Left",1,"FF","FL",7,"down",509,1,"Guest10"
25,0.566533267498016,0.501799941062927,30.8233337402344,138.362655639648,43.5213356018066,148.992,2337.997,1313.997,"Pictures_Onset",1277.991,"10","Healthy",10,50,65,3,"no","down","Left",1,"FF","FL",7,"down",509,1,"Guest10"
25,0.551619112491608,0.493142873048782,23.7585735321045,140.492401123047,44.298095703125,216.999,2736.998,1712.998,"Pictures_Onset",1676.992,"10","Healthy",10,50,65,3,"no","down","Left",1,"FF","FL",7,"down",509,1,"Guest10"
26,0.406606078147888,0.529212057590485,-44.7342414855957,131.523010253906,41.033031463623,166.003,1025.997,0,"Pictures_Onset",-34.009,"10","Healthy",10,50,65,4,"no","down","Left",0,"FL","FF",7,"down",507,1,"Guest10"
26,0.622749984264374,0.477944493293762,57.243335723877,144.25,45.6655464172363,382.003,1258.995,232.998,"Pictures_Onset",198.989,"10","Salty",10,50,65,4,"no","down","Left",0,"FL","FF",7,"down",507,1,"Guest10"
26,0.645407438278198,0.467814862728119,67.9659271240234,146.771102905273,46.5814819335938,132.006,1691.994,665.997,"Pictures_Onset",631.988,"10","Salty",10,50,65,4,"no","down","Left",0,"FL","FF",7,"down",507,1,"Guest10"
26,0.386266678571701,0.477000057697296,-54.339111328125,144.490676879883,45.7544441223145,234.01,1890.995,864.998,"Pictures_Onset",830.989,"10","Healthy",10,50,65,4,"no","down","Left",0,"FL","FF",7,"down",507,1,"Guest10"
26,0.657370388507843,0.457037031650543,73.6466751098633,149.472961425781,47.565559387207,132.006,2257.997,1232,"Pictures_Onset",1197.991,"10","Salty",10,50,65,4,"no","down","Left",0,"FL","FF",7,"down",507,1,"Guest10"
27,0.377139806747437,0.483806520700455,-58.5719261169434,142.828491210938,45.14892578125,498.995,1545.997,516.007,"Pictures_Onset",485.991,"10","Salty",10,50,65,1,"no","up","Right",0,"FF","FL",7,"up",473,1,"Guest10"
27,0.450487166643143,0.531179487705231,-23.9237174987793,131.022567749023,40.8514060974121,416.998,2360,1330.01,"Pictures_Onset",1299.994,"10","Salty",10,50,65,1,"no","up","Right",0,"FF","FL",7,"up",473,1,"Guest10"
28,0.407166719436646,0.456277757883072,-44.4716682434082,149.664733886719,47.636661529541,183.002,1450.995,266.995,"Pictures_Onset",390.989,"10","Healthy",10,50,65,2,"no","up","Right",1,"FL","FF",7,"up",537,1,"Guest10"
28,0.579526662826538,0.468753278255463,36.8878021240234,146.523193359375,46.4934730529785,399.002,1700.992,516.992,"Pictures_Onset",640.986,"10","Salty",10,50,65,2,"no","up","Right",1,"FL","FF",7,"up",537,1,"Guest10"
28,0.405481487512589,0.511864185333252,-45.2444381713867,135.813674926758,42.5945701599121,432.999,2182.003,998.003,"Pictures_Onset",1121.997,"10","Healthy",10,50,65,2,"no","up","Right",1,"FL","FF",7,"up",537,1,"Guest10"
28,0.420622199773788,0.490266680717468,-38.064884185791,141.203796386719,44.5573310852051,233.997,2664.998,1480.998,"Pictures_Onset",1604.992,"10","Healthy",10,50,65,2,"no","up","Right",1,"FL","FF",7,"up",537,1,"Guest10"
29,0.409960031509399,0.492160022258759,-43.1011924743652,140.73454284668,44.3862648010254,399.002,1022.003,0,"Pictures_Onset",-38.003,"10","Salty",10,50,65,4,"no","down","Left",1,"FF","FL",8,"down",378,1,"Guest10"
29,0.62548840045929,0.480069756507874,58.5290756225586,143.744247436523,45.4812355041504,697.997,1504.998,482.995,"Pictures_Onset",444.992,"10","Healthy",10,50,65,4,"no","down","Left",1,"FF","FL",8,"down",378,1,"Guest10"
30,0.586575746536255,0.503409147262573,40.1978797912598,137.917129516602,43.360912322998,350.003,1968,948.006,"Pictures_Onset",907.994,"10","Salty",10,50,65,1,"no","down","Left",0,"FL","FF",8,"down",450,1,"Guest10"
30,0.613843023777008,0.474411725997925,53.0725479125977,145.132751464844,45.9884338378906,267.994,2350.003,1330.009,"Pictures_Onset",1289.997,"10","Salty",10,50,65,1,"no","down","Left",0,"FL","FF",8,"down",450,1,"Guest10"
30,0.61724990606308,0.478116661310196,54.6801681518555,144.241317749023,45.6618309020996,314.995,2650.995,1631.001,"Pictures_Onset",1590.989,"10","Salty",10,50,65,1,"no","down","Left",0,"FL","FF",8,"down",450,1,"Guest10"
31,0.401814818382263,0.468259274959564,-47.0185165405273,146.663711547852,46.543701171875,133.005,1414.003,381.99,"Pictures_Onset",353.997,"10","Salty",10,50,65,2,"no","up","Right",0,"FF","FL",8,"up",454,1,"Guest10"
31,0.657871782779694,0.461769253015518,73.8430709838867,148.273590087891,47.1300010681152,200,1763.008,730.995,"Pictures_Onset",703.002,"10","Healthy",10,50,65,2,"no","up","Right",0,"FF","FL",8,"up",454,1,"Guest10"
32,0.3996222615242,0.541955530643463,-47.9786720275879,128.314437866211,39.8651123046875,234.009,1030.989,0,"Pictures_Onset",-29.0170000000001,"10","Healthy",10,50,65,3,"no","up","Right",1,"FL","FF",8,"up",473,1,"Guest10"
32,0.451659440994263,0.531731903553009,-23.4492034912109,130.866592407227,40.794490814209,748.007,1314.995,284.006,"Pictures_Onset",254.989,"10","Healthy",10,50,65,3,"no","up","Right",1,"FL","FF",8,"up",473,1,"Guest10"
33,0.631527721881866,0.48675000667572,61.3175048828125,142.060836791992,44.8688850402832,182.003,1290.995,265.997,"Pictures_Onset",230.989,"10","Healthy",10,50,65,1,"no","down","Left",1,"FF","FL",9,"down",498,1,"Guest10"
33,0.36505126953125,0.46225643157959,-64.3176956176758,148.155654907227,47.0866661071777,199.002,1556.992,531.994,"Pictures_Onset",496.986,"10","Salty",10,50,65,1,"no","down","Left",1,"FF","FL",9,"down",498,1,"Guest10"
33,0.638904869556427,0.479000002145767,64.8054733276367,144.014053344727,45.5797538757324,215.002,1840,815.002,"Pictures_Onset",779.994,"10","Healthy",10,50,65,1,"no","down","Left",1,"FF","FL",9,"down",498,1,"Guest10"
33,0.377444446086884,0.459703713655472,-58.4570388793945,148.777038574219,47.3114814758301,133.005,2121.997,1096.999,"Pictures_Onset",1061.991,"10","Salty",10,50,65,1,"no","down","Left",1,"FF","FL",9,"down",498,1,"Guest10"
33,0.644596457481384,0.483649104833603,67.5201721191406,142.855255126953,45.1584205627441,300.007,2338.995,1313.997,"Pictures_Onset",1278.989,"10","Healthy",10,50,65,1,"no","down","Left",1,"FF","FL",9,"down",498,1,"Guest10"
33,0.620878756046295,0.499272704124451,56.3978843688965,138.929397583008,43.7281799316406,166.988,2671.002,1646.004,"Pictures_Onset",1610.996,"10","Healthy",10,50,65,1,"no","down","Left",1,"FF","FL",9,"down",498,1,"Guest10"
34,0.401030302047729,0.478505074977875,-47.3399963378906,144.112640380859,45.6154556274414,532.006,2251.994,1165.005,"Pictures_Onset",1191.988,"10","Healthy",10,50,65,2,"no","down","Left",0,"FL","FF",9,"down",526,1,"Guest10"
34,0.608481466770172,0.487629622220993,50.4748153686523,141.826293945312,44.783332824707,133.005,2849.997,1763.008,"Pictures_Onset",1789.991,"10","Salty",10,50,65,2,"no","down","Left",0,"FL","FF",9,"down",526,1,"Guest10"
35,0.403476178646088,0.491380959749222,-46.149528503418,140.903564453125,44.4483299255371,215.987,1022.003,0,"Pictures_Onset",-38.003,"10","Salty",10,50,65,3,"no","up","Right",0,"FF","FL",9,"up",556,1,"Guest10"
35,0.590344786643982,0.504367709159851,42.0167808532715,137.68034362793,43.2739028930664,466.995,1304,281.997,"Pictures_Onset",243.994,"10","Healthy",10,50,65,3,"no","up","Right",0,"FF","FL",9,"up",556,1,"Guest10"
36,0.386393934488297,0.477818131446838,-54.2733383178711,144.266677856445,45.6712112426758,167.002,1260.992,232.998,"Pictures_Onset",200.986,"10","Healthy",10,50,65,4,"no","up","Right",1,"FL","FF",9,"up",533,1,"Guest10"
36,0.651439428329468,0.473651528358459,70.8198547363281,145.309692382812,46.0499954223633,349.005,1510.989,482.995,"Pictures_Onset",450.983,"10","Salty",10,50,65,4,"no","up","Right",1,"FL","FF",9,"up",533,1,"Guest10"
36,0.62753701210022,0.486148208379745,59.5185203552246,142.225738525391,44.9279632568359,284.006,1892.992,864.998,"Pictures_Onset",832.986,"10","Salty",10,50,65,4,"no","up","Right",1,"FL","FF",9,"up",533,1,"Guest10"
36,0.404416680335999,0.493194431066513,-45.735279083252,140.438598632812,44.2783317565918,184.998,2241.997,1214.003,"Pictures_Onset",1181.991,"10","Healthy",10,50,65,4,"no","up","Right",1,"FL","FF",9,"up",533,1,"Guest10"
36,0.628380954265594,0.493071407079697,59.9345207214355,140.551910400391,44.3207206726074,216.998,2491.994,1464,"Pictures_Onset",1431.988,"10","Salty",10,50,65,4,"no","up","Right",1,"FL","FF",9,"up",533,1,"Guest10"
36,0.404444485902786,0.49549999833107,-45.6836128234863,139.91389465332,44.0872230529785,184,2792,1764.006,"Pictures_Onset",1731.994,"10","Healthy",10,50,65,4,"no","up","Right",1,"FL","FF",9,"up",533,1,"Guest10"
38,0.39103227853775,0.494612872600555,-52.0133361816406,140.129577636719,44.1666641235352,498.995,1544,515.008,"Pictures_Onset",483.994,"10","Healthy",10,50,65,3,"no","down","Left",0,"FL","FF",10,"down",565,1,"Guest10"
40,0.387499988079071,0.485900014638901,-53.7493362426758,142.318664550781,44.9633369445801,151.002,1272.998,248.998,"Pictures_Onset",212.992,"10","Healthy",10,50,65,1,"no","up","Right",1,"FL","FF",10,"down",420,0,"Guest10"
40,0.641333341598511,0.476764678955078,66.0260772705078,144.556274414062,45.7774467468262,265.997,1506.995,482.995,"Pictures_Onset",446.989,"10","Salty",10,50,65,1,"no","up","Right",1,"FL","FF",10,"down",420,0,"Guest10"
40,0.66898238658905,0.498964905738831,79.051399230957,139.028076171875,43.7645606994629,298.995,1823.002,799.002,"Pictures_Onset",762.996,"10","Salty",10,50,65,1,"no","up","Right",1,"FL","FF",10,"down",420,0,"Guest10"
40,0.407921552658081,0.496990323066711,-44.0832366943359,139.535095214844,43.9494247436523,549.005,2205.99,1181.99,"Pictures_Onset",1145.984,"10","Healthy",10,50,65,1,"no","up","Right",1,"FL","FF",10,"down",420,0,"Guest10"
40,0.402866661548615,0.464766681194305,-46.4130020141602,147.589004516602,46.8803329467773,149.004,2787.994,1763.994,"Pictures_Onset",1727.988,"10","Healthy",10,50,65,1,"no","up","Right",1,"FL","FF",10,"down",420,0,"Guest10"
41,0.380190521478653,0.472047626972198,-57.1571502685547,145.727478027344,46.2030181884766,334.003,1418.995,399.001,"Pictures_Onset",358.989,"10","Sugary",10,50,65,3,"no","up","Left",1,"FS","FL",11,"up",467,1,"Guest10"
41,0.559453964233398,0.500471293926239,27.4036731719971,138.662078857422,43.6313247680664,948.007,1818.995,799.001,"Pictures_Onset",758.989,"10","Healthy",10,50,65,3,"no","up","Left",1,"FS","FL",11,"up",467,1,"Guest10"
42,0.401272684335709,0.507575750350952,-47.2469711303711,136.888488769531,42.9854507446289,166.004,1708.006,683.008,"Pictures_Onset",648,"10","Healthy",10,50,65,4,"no","up","Left",0,"FL","FS",11,"up",551,1,"Guest10"
42,0.614185214042664,0.463651776313782,53.1792602539062,147.829040527344,46.9682197570801,732.992,1940.006,915.008,"Pictures_Onset",880,"10","Sugary",10,50,65,4,"no","up","Left",0,"FL","FS",11,"up",551,1,"Guest10"
42,0.596791684627533,0.526437520980835,44.9843788146973,132.19563293457,41.2781219482422,248.998,2723.008,1698.01,"Pictures_Onset",1663.002,"10","Sugary",10,50,65,4,"no","up","Left",0,"FL","FS",11,"up",551,1,"Guest10"
43,0.61985182762146,0.466981470584869,55.8975982666016,146.985549926758,46.6607398986816,284.006,1345.997,314.995,"Pictures_Onset",285.991,"10","Healthy",10,50,65,1,"no","down","Right",0,"FS","FL",11,"down",554,1,"Guest10"
43,0.652827143669128,0.47932094335556,71.3938293457031,143.911727905273,45.5434494018555,432,2178.995,1147.993,"Pictures_Onset",1118.989,"10","Healthy",10,50,65,1,"no","down","Right",0,"FS","FL",11,"down",554,1,"Guest10"
43,0.37336665391922,0.45030003786087,-60.3920059204102,151.140991210938,48.172664642334,150.004,2677.99,1646.988,"Pictures_Onset",1617.984,"10","Sugary",10,50,65,1,"no","down","Right",0,"FS","FL",11,"down",554,1,"Guest10"
44,0.380051285028458,0.490487217903137,-57.2238426208496,141.166152954102,44.5423049926758,200,2129.997,1080.999,"Pictures_Onset",1069.991,"10","Healthy",10,50,65,2,"no","down","Right",1,"FL","FS",11,"down",643,1,"Guest10"
45,0.394156873226166,0.506921529769897,-50.5635261535645,137.053726196289,43.0464706420898,265.996,1034.01,0,"Pictures_Onset",-25.9960000000001,"10","Sugary",10,50,65,4,"no","up","Left",1,"FS","FL",12,"up",531,1,"Guest10"
45,0.418043702840805,0.48802188038826,-39.3097801208496,141.731979370117,44.7495155334473,998.003,1783.002,748.992,"Pictures_Onset",722.996,"10","Sugary",10,50,65,4,"no","up","Left",1,"FS","FL",12,"up",531,1,"Guest10"
45,0.416878819465637,0.493666678667068,-39.8815155029297,140.316955566406,44.2336387634277,167.001,2815.002,1780.992,"Pictures_Onset",1754.996,"10","Sugary",10,50,65,4,"no","up","Left",1,"FS","FL",12,"up",531,1,"Guest10"
46,0.37275367975235,0.4771448969841,-60.628978729248,144.439727783203,45.7343482971191,364.992,1544,516.006,"Pictures_Onset",483.994,"10","Healthy",10,50,65,1,"no","up","Left",0,"FL","FS",12,"up",435,1,"Guest10"
46,0.614254951477051,0.464058816432953,53.2427520751953,147.737045288086,46.9356842041016,264.999,1992.998,965.004,"Pictures_Onset",932.992,"10","Sugary",10,50,65,1,"no","up","Left",0,"FL","FS",12,"up",435,1,"Guest10"
46,0.373194456100464,0.478499978780746,-60.5116691589355,144.131118774414,45.6230506896973,182.004,2325.99,1297.996,"Pictures_Onset",1265.984,"10","Healthy",10,50,65,1,"no","up","Left",0,"FL","FS",12,"up",435,1,"Guest10"
46,0.372256428003311,0.480948716402054,-60.9079513549805,143.468200683594,45.3820533752441,199.987,2542.003,1514.009,"Pictures_Onset",1481.997,"10","Healthy",10,50,65,1,"no","up","Left",0,"FL","FS",12,"up",435,1,"Guest10"
46,0.600787878036499,0.457818210124969,46.87939453125,149.199401855469,47.466968536377,166.003,2808,1780.006,"Pictures_Onset",1747.994,"10","Sugary",10,50,65,1,"no","up","Left",0,"FL","FS",12,"up",435,1,"Guest10"
47,0.383666694164276,0.462133347988129,-55.4993362426758,148.207672119141,47.1073379516602,150.003,1316.992,298.995,"Pictures_Onset",256.986,"10","Sugary",10,50,65,2,"no","down","Right",0,"FS","FL",12,"down",492,1,"Guest10"
47,0.614043414592743,0.462202847003937,53.1128997802734,148.188247680664,47.0989837646484,367.002,1548.992,530.995,"Pictures_Onset",488.986,"10","Healthy",10,50,65,2,"no","down","Right",0,"FS","FL",12,"down",492,1,"Guest10"
47,0.669743597507477,0.462974399328232,79.4756393432617,147.972045898438,47.0215377807617,199.987,1982.003,964.006,"Pictures_Onset",921.997,"10","Healthy",10,50,65,2,"no","down","Right",0,"FS","FL",12,"down",492,1,"Guest10"
47,0.548777759075165,0.43971112370491,22.3371086120605,153.75732421875,49.1264495849609,232.998,2248,1230.003,"Pictures_Onset",1187.994,"10","Healthy",10,50,65,2,"no","down","Right",0,"FS","FL",12,"down",492,1,"Guest10"
48,0.357727289199829,0.509045422077179,-67.7748413085938,136.524536132812,42.8543891906738,350.003,1743.002,713.997,"Pictures_Onset",682.996,"10","Healthy",10,50,65,3,"no","down","Right",1,"FL","FS",12,"down",571,1,"Guest10"
48,0.622179448604584,0.490589767694473,57.0307693481445,141.154357910156,44.5382080078125,199.001,2293.005,1264,"Pictures_Onset",1232.999,"10","Sugary",10,50,65,3,"no","down","Right",1,"FL","FS",12,"down",571,1,"Guest10"
48,0.636416733264923,0.474541693925858,63.7091636657715,145.050415039062,45.9570808410645,115.994,2740.006,1711.001,"Pictures_Onset",1680,"10","Sugary",10,50,65,3,"no","down","Right",1,"FL","FS",12,"down",571,1,"Guest10"
49,0.62253338098526,0.492177695035934,57.1675491333008,140.732223510742,44.3860015869141,232,1482.995,449.997,"Pictures_Onset",422.989,"10","Healthy",10,50,65,1,"no","up","Left",1,"FS","FL",13,"up",481,1,"Guest10"
49,0.369769215583801,0.485064148902893,-62.0812759399414,142.491546630859,45.0255126953125,417.011,1780.992,747.994,"Pictures_Onset",720.986,"10","Sugary",10,50,65,1,"no","up","Left",1,"FS","FL",13,"up",481,1,"Guest10"
49,0.561705946922302,0.494156837463379,28.46803855896,140.241577148438,44.2072486877441,264.999,2264.998,1232,"Pictures_Onset",1204.992,"10","Healthy",10,50,65,1,"no","up","Left",1,"FS","FL",13,"up",481,1,"Guest10"
51,0.617575764656067,0.504575729370117,54.8384857177734,137.615768432617,43.2509078979492,166.004,1381.99,332.992,"Pictures_Onset",321.984,"10","Healthy",10,50,65,3,"no","down","Right",0,"FS","FL",13,"down",548,1,"Guest10"
51,0.399333328008652,0.47176918387413,-48.1120529174805,145.818466186523,46.2371788024902,198.989,1632,583.002,"Pictures_Onset",571.994,"10","Sugary",10,50,65,3,"no","down","Right",0,"FS","FL",13,"down",548,1,"Guest10"
51,0.572465479373932,0.503207564353943,33.5231475830078,137.980880737305,43.384147644043,864.999,1896.998,848,"Pictures_Onset",836.992,"10","Healthy",10,50,65,3,"no","down","Right",0,"FS","FL",13,"down",548,1,"Guest10"
51,0.570888876914978,0.498722225427628,32.742504119873,139.104446411133,43.7930564880371,184,2795.994,1746.996,"Pictures_Onset",1735.988,"10","Healthy",10,50,65,3,"no","down","Right",0,"FS","FL",13,"down",548,1,"Guest10"
52,0.413690507411957,0.480119079351425,-41.3569068908691,143.738815307617,45.4804763793945,215.002,1024,0,"Pictures_Onset",-36.0060000000001,"10","Healthy",10,50,65,4,"no","down","Right",1,"FL","FS",13,"down",595,1,"Guest10"
52,0.612166583538055,0.469236105680466,52.2738838195801,146.416946411133,46.4538879394531,382.003,1323.994,299.994,"Pictures_Onset",263.988,"10","Sugary",10,50,65,4,"no","down","Right",1,"FL","FS",13,"down",595,1,"Guest10"
52,0.396194458007812,0.472499936819077,-49.6166687011719,145.625549316406,46.1652793884277,183.002,1788.992,764.992,"Pictures_Onset",728.986,"10","Healthy",10,50,65,4,"no","down","Right",1,"FL","FS",13,"down",595,1,"Guest10"
52,0.61379998922348,0.460466682910919,53.0246696472168,148.610885620117,47.2531127929688,232.998,2055.002,1031.002,"Pictures_Onset",994.996,"10","Sugary",10,50,65,4,"no","down","Right",1,"FL","FS",13,"down",595,1,"Guest10"
52,0.416022181510925,0.483000010251999,-40.2404441833496,143.024215698242,45.2193374633789,234.01,2636.992,1612.992,"Pictures_Onset",1576.986,"10","Healthy",10,50,65,4,"no","down","Right",1,"FL","FS",13,"down",595,1,"Guest10"
53,0.405311167240143,0.501888930797577,-45.2993392944336,138.320220947266,43.5064468383789,232,1077.005,0,"Pictures_Onset",16.999,"10","Sugary",10,50,65,2,"no","up","Left",1,"FS","FL",14,"up",510,1,"Guest10"
53,0.60287868976593,0.471469610929489,47.8753051757812,145.839401245117,46.2433395385742,350.003,1392,314.995,"Pictures_Onset",331.994,"10","Healthy",10,50,65,2,"no","up","Left",1,"FS","FL",14,"up",510,1,"Guest10"
53,0.424333304166794,0.517428576946259,-36.2961921691895,134.426910400391,42.0914344787598,217.011,1808,730.995,"Pictures_Onset",747.994,"10","Sugary",10,50,65,2,"no","up","Left",1,"FS","FL",14,"up",510,1,"Guest10"
54,0.4152592420578,0.48605552315712,-40.6287078857422,142.261489868164,44.9414825439453,282.995,1026.995,0,"Pictures_Onset",-33.0110000000002,"10","Healthy",10,50,65,3,"no","up","Left",0,"FL","FS",14,"up",524,1,"Guest10"
54,0.582807064056396,0.499491184949875,38.4115829467773,138.881576538086,43.7119255065918,298.995,1376,349.005,"Pictures_Onset",315.994,"10","Sugary",10,50,65,3,"no","up","Left",0,"FL","FS",14,"up",524,1,"Guest10"
54,0.61816668510437,0.491148114204407,55.1109199523926,140.988342285156,44.4790725708008,282.995,1975.002,948.007,"Pictures_Onset",914.996,"10","Sugary",10,50,65,3,"no","up","Left",0,"FL","FS",14,"up",524,1,"Guest10"
54,0.407047659158707,0.497178614139557,-44.4841651916504,139.475952148438,43.9282188415527,449.996,2323.994,1296.999,"Pictures_Onset",1263.988,"10","Healthy",10,50,65,3,"no","up","Left",0,"FL","FS",14,"up",524,1,"Guest10"
55,0.394952356815338,0.505999982357025,-50.1938095092773,137.268585205078,43.1261901855469,238.003,1721.997,564.992,"Pictures_Onset",661.991,"10","Sugary",10,50,65,4,"no","down","Right",0,"FS","FL",14,"down",539,1,"Guest10"
55,0.405874997377396,0.499666690826416,-45.0345802307129,138.878326416016,43.7112464904785,116.007,1992.998,835.993,"Pictures_Onset",932.992,"10","Sugary",10,50,65,4,"no","down","Right",0,"FS","FL",14,"down",539,1,"Guest10"
55,0.617796301841736,0.467518478631973,54.8518524169922,146.829071044922,46.6049995422363,282.995,2176,1018.995,"Pictures_Onset",1115.994,"10","Healthy",10,50,65,4,"no","down","Right",0,"FS","FL",14,"down",539,1,"Guest10"
55,0.570066690444946,0.478933334350586,32.3589973449707,144.021011352539,45.5813331604004,150.004,2824.998,1667.993,"Pictures_Onset",1764.992,"10","Healthy",10,50,65,4,"no","down","Right",0,"FS","FL",14,"down",539,1,"Guest10"
56,0.397882342338562,0.459784299135208,-48.8615646362305,148.795700073242,47.3192176818848,265.996,1034.01,0,"Pictures_Onset",-25.9960000000001,"10","Healthy",10,50,65,1,"no","down","Right",1,"FL","FS",14,"down",486,1,"Guest10"
56,0.587805569171906,0.457333356142044,40.8291664123535,149.377487182617,47.5322227478027,182.003,1383.002,348.992,"Pictures_Onset",322.996,"10","Sugary",10,50,65,1,"no","down","Right",1,"FL","FS",14,"down",486,1,"Guest10"
56,0.634499967098236,0.474805563688278,62.7825012207031,145.020004272461,45.945556640625,185.011,1615.002,580.992,"Pictures_Onset",554.996,"10","Sugary",10,50,65,1,"no","down","Right",1,"FL","FS",14,"down",486,1,"Guest10"
56,0.671374976634979,0.507250010967255,80.2135467529297,136.988327026367,43.0220832824707,249.997,1849.011,815.001,"Pictures_Onset",789.005,"10","Sugary",10,50,65,1,"no","down","Right",1,"FL","FS",14,"down",486,1,"Guest10"
56,0.39699998497963,0.483624994754791,-49.2179145812988,142.880416870117,45.1679153442383,115.994,2249.011,1215.001,"Pictures_Onset",1189.005,"10","Healthy",10,50,65,1,"no","down","Right",1,"FL","FS",14,"down",486,1,"Guest10"
56,0.664650022983551,0.460233271121979,76.9719924926758,148.663497924805,47.2731590270996,315.008,2448,1413.99,"Pictures_Onset",1387.994,"10","Sugary",10,50,65,1,"no","down","Right",1,"FL","FS",14,"down",486,1,"Guest10"
56,0.411925911903381,0.498518526554108,-42.1129608154297,139.119995117188,43.799259185791,132.006,2848,1813.99,"Pictures_Onset",1787.994,"10","Healthy",10,50,65,1,"no","down","Right",1,"FL","FS",14,"down",486,1,"Guest10"
57,0.627933263778687,0.486566632986069,59.7923355102539,142.13166809082,44.8929977416992,149.99,1536,515.008,"Pictures_Onset",475.994,"10","Healthy",10,50,65,3,"no","up","Left",1,"FS","FL",15,"up",563,1,"Guest10"
58,0.411666750907898,0.526175379753113,-42.3077201843262,132.275787353516,41.3063125610352,299.993,1031.002,0,"Pictures_Onset",-29.0040000000001,"10","Healthy",10,50,65,4,"no","up","Left",0,"FL","FS",15,"up",464,1,"Guest10"
58,0.604714274406433,0.492154836654663,48.7349967956543,140.715454101562,44.3791694641113,448.999,1414.003,366.003,"Pictures_Onset",353.997,"10","Sugary",10,50,65,4,"no","up","Left",0,"FL","FS",15,"up",464,1,"Guest10"
58,0.385266661643982,0.500666677951813,-54.7436637878418,138.629318237305,43.6216659545898,150.003,1929.997,881.997,"Pictures_Onset",869.991,"10","Healthy",10,50,65,4,"no","up","Left",0,"FL","FS",15,"up",464,1,"Guest10"
58,0.382217615842819,0.495639443397522,-56.1896667480469,139.856460571289,44.0670051574707,798.004,2112.998,1064.998,"Pictures_Onset",1052.992,"10","Healthy",10,50,65,4,"no","up","Left",0,"FL","FS",15,"up",464,1,"Guest10"
59,0.387746036052704,0.478952407836914,-53.6085739135742,143.990951538086,45.5711059570312,333.005,1746.995,715.008,"Pictures_Onset",686.989,"10","Sugary",10,50,65,1,"no","down","Right",0,"FS","FL",15,"down",458,1,"Guest10"
59,0.385750025510788,0.488583326339722,-54.530834197998,141.650405883789,44.7183303833008,114.995,2113.997,1082.01,"Pictures_Onset",1053.991,"10","Sugary",10,50,65,1,"no","down","Right",0,"FS","FL",15,"down",458,1,"Guest10"
59,0.552753567695618,0.502536296844482,24.2578315734863,138.116821289062,43.4326057434082,367.001,2278.989,1247.002,"Pictures_Onset",1218.983,"10","Healthy",10,50,65,1,"no","down","Right",0,"FS","FL",15,"down",458,1,"Guest10"
59,0.553929805755615,0.508087754249573,24.8271903991699,136.739318847656,42.9314041137695,299.008,2678.989,1647.002,"Pictures_Onset",1618.983,"10","Healthy",10,50,65,1,"no","down","Right",0,"FS","FL",15,"down",458,1,"Guest10"
60,0.389141023159027,0.50292307138443,-52.9407691955566,138.049102783203,43.4085884094238,415.001,2329.997,1248,"Pictures_Onset",1269.991,"10","Healthy",10,50,65,2,"no","down","Right",1,"FL","FS",15,"down",579,1,"Guest10"
61,0.394904762506485,0.483190476894379,-50.2266616821289,142.94856262207,45.1919059753418,100.006,1360,332.992,"Pictures_Onset",299.994,"10","Sugary",10,50,65,4,"no","down","Left",1,"FS","FL",16,"down",575,1,"Guest10"
61,0.644771873950958,0.460736840963364,67.6906967163086,148.532608032227,47.2249183654785,298.995,1610.01,583.002,"Pictures_Onset",550.004,"10","Healthy",10,50,65,4,"no","down","Left",1,"FS","FL",16,"down",575,1,"Guest10"
61,0.61042594909668,0.457685202360153,51.4181518554688,149.318511962891,47.5109252929688,283.008,1942.003,914.995,"Pictures_Onset",881.997,"10","Healthy",10,50,65,4,"no","down","Left",1,"FS","FL",16,"down",575,1,"Guest10"
61,0.408866673707962,0.49796661734581,-43.6678924560547,139.274429321289,43.8546714782715,481.997,2508.006,1480.998,"Pictures_Onset",1448,"10","Sugary",10,50,65,4,"no","down","Left",1,"FS","FL",16,"down",575,1,"Guest10"
62,0.410333305597305,0.515722215175629,-42.9072227478027,134.857498168945,42.2477798461914,183.001,2351.002,1331.994,"Pictures_Onset",1290.996,"10","Healthy",10,50,65,1,"no","down","Left",0,"FL","FS",16,"down",406,1,"Guest10"
63,0.403333276510239,0.464540153741837,-46.2542610168457,147.578735351562,46.8764343261719,466.995,1024,0,"Pictures_Onset",-36.0060000000001,"10","Sugary",10,50,65,2,"no","up","Right",0,"FS","FL",16,"up",582,1,"Guest10"
64,0.639444470405579,0.477904736995697,65.1563415527344,144.28825378418,45.6804733276367,334.003,1764.992,730.995,"Pictures_Onset",704.986,"10","Sugary",10,50,65,3,"no","up","Right",1,"FL","FS",16,"up",597,1,"Guest10"
64,0.415190488100052,0.486880958080292,-40.650951385498,142.017379760742,44.8540458679199,216.999,2264.998,1231.001,"Pictures_Onset",1204.992,"10","Healthy",10,50,65,3,"no","up","Right",1,"FL","FS",16,"up",597,1,"Guest10"
65,0.397634863853455,0.477254003286362,-48.9263496398926,144.445709228516,45.7368278503418,332.992,1033.997,0,"Pictures_Onset",-26.009,"10","Sugary",10,50,65,1,"no","down","Left",1,"FS","FL",17,"down",444,1,"Guest10"
65,0.560166656970978,0.504187524318695,27.7514572143555,137.739166259766,43.2960433959961,249.996,1899.994,865.997,"Pictures_Onset",839.988,"10","Healthy",10,50,65,1,"no","down","Left",1,"FS","FL",17,"down",444,1,"Guest10"
66,0.407333314418793,0.487578898668289,-44.3310508728027,141.851409912109,44.7933311462402,298.995,1033.997,0,"Pictures_Onset",-26.009,"10","Healthy",10,50,65,2,"no","down","Left",0,"FL","FS",17,"down",571,1,"Guest10"
66,0.597298264503479,0.47173684835434,45.2338523864746,145.79296875,46.2271957397461,298.995,1400,366.003,"Pictures_Onset",339.994,"10","Sugary",10,50,65,2,"no","down","Left",0,"FL","FS",17,"down",571,1,"Guest10"
66,0.642030239105225,0.471393972635269,66.4393997192383,145.859069824219,46.2533340454102,166.004,1848.998,815.001,"Pictures_Onset",788.992,"10","Sugary",10,50,65,2,"no","down","Left",0,"FL","FS",17,"down",571,1,"Guest10"
66,0.642166554927826,0.467645794153214,66.3554153442383,146.827087402344,46.6029243469238,248.999,2048.998,1015.001,"Pictures_Onset",988.992,"10","Sugary",10,50,65,2,"no","down","Left",0,"FL","FS",17,"down",571,1,"Guest10"
67,0.404884099960327,0.495318859815598,-45.5286979675293,139.947952270508,44.1011581420898,366.003,1079.002,0,"Pictures_Onset",18.9959999999999,"10","Sugary",10,50,65,3,"no","up","Right",0,"FS","FL",17,"up",612,1,"Guest10"
67,0.652708292007446,0.49033334851265,71.3666687011719,141.223739624023,44.5637512207031,115.994,1728,648.998,"Pictures_Onset",667.994,"10","Healthy",10,50,65,3,"no","up","Right",0,"FS","FL",17,"up",612,1,"Guest10"
67,0.373190492391586,0.482976198196411,-60.465950012207,143.051910400391,45.2297592163086,216,1928,848.998,"Pictures_Onset",867.994,"10","Sugary",10,50,65,3,"no","up","Right",0,"FS","FL",17,"up",612,1,"Guest10"
67,0.387014508247375,0.479739099740982,-53.9008750915527,143.831024169922,45.5140533447266,365.005,2177.997,1098.995,"Pictures_Onset",1117.991,"10","Sugary",10,50,65,3,"no","up","Right",0,"FS","FL",17,"up",612,1,"Guest10"
67,0.39640000462532,0.469511121511459,-49.4753341674805,146.371780395508,46.4386672973633,232,2576.998,1497.996,"Pictures_Onset",1516.992,"10","Sugary",10,50,65,3,"no","up","Right",0,"FS","FL",17,"up",612,1,"Guest10"
67,0.405444443225861,0.471407353878021,-45.2418556213379,145.827026367188,46.2411079406738,134.003,2841.997,1762.995,"Pictures_Onset",1781.991,"10","Sugary",10,50,65,3,"no","up","Right",0,"FS","FL",17,"up",612,1,"Guest10"
68,0.410215646028519,0.484490215778351,-42.9707832336426,142.660202026367,45.0870590209961,265.997,1032,0,"Pictures_Onset",-28.0060000000001,"10","Healthy",10,50,65,4,"no","up","Right",1,"FL","FS",17,"up",433,1,"Guest10"
68,0.621619045734406,0.47904759645462,56.7164306640625,143.982620239258,45.5666694641113,218.009,1363.994,331.994,"Pictures_Onset",303.988,"10","Sugary",10,50,65,4,"no","up","Right",1,"FL","FS",17,"up",433,1,"Guest10"
68,0.624388933181763,0.479138880968094,57.9902763366699,143.978332519531,45.5663909912109,184,1614.003,582.003,"Pictures_Onset",553.997,"10","Sugary",10,50,65,4,"no","up","Right",1,"FL","FS",17,"up",433,1,"Guest10"
68,0.390122771263123,0.496263206005096,-52.5449142456055,139.713516235352,44.0150871276855,298.995,2097.997,1065.997,"Pictures_Onset",1037.991,"10","Healthy",10,50,65,4,"no","up","Right",1,"FL","FS",17,"up",433,1,"Guest10"
68,0.554968774318695,0.512937545776367,25.2836494445801,135.535736083984,42.4947853088379,515.993,2463.002,1431.002,"Pictures_Onset",1402.996,"10","Sugary",10,50,65,4,"no","up","Right",1,"FL","FS",17,"up",433,1,"Guest10"
69,0.398950695991516,0.518629550933838,-48.3380317687988,134.116912841797,41.9779014587402,432,1016.998,0,"Pictures_Onset",-43.008,"10","Sugary",10,50,65,2,"no","down","Left",1,"FS","FL",18,"down",546,1,"Guest10"
69,0.630244493484497,0.481022268533707,60.788890838623,143.486221313477,45.3862190246582,232.998,1733.005,716.007,"Pictures_Onset",672.999,"10","Healthy",10,50,65,2,"no","down","Left",1,"FS","FL",18,"down",546,1,"Guest10"
69,0.376300007104874,0.476477742195129,-59.0105514526367,144.627548217773,45.8031120300293,483.008,2032,1015.002,"Pictures_Onset",971.994,"10","Sugary",10,50,65,2,"no","down","Left",1,"FS","FL",18,"down",546,1,"Guest10"
69,0.423666656017303,0.50053334236145,-36.6419944763184,138.65754699707,43.6293334960938,232,2565.005,1548.007,"Pictures_Onset",1504.999,"10","Sugary",10,50,65,2,"no","down","Left",1,"FS","FL",18,"down",546,1,"Guest10"
70,0.366773337125778,0.483946651220322,-63.4758758544922,142.772933959961,45.1292037963867,397.99,1379.008,350.003,"Pictures_Onset",319.002,"10","Healthy",10,50,65,3,"no","down","Left",0,"FL","FS",18,"down",483,1,"Guest10"
71,0.395869046449661,0.474011898040771,-49.7995262145996,145.239883422852,46.0266647338867,448.999,1624.998,598.003,"Pictures_Onset",564.992,"10","Sugary",10,50,65,4,"no","up","Right",0,"FS","FL",18,"up",530,1,"Guest10"
71,0.623888850212097,0.503158807754517,57.7812690734863,137.979049682617,43.3830146789551,333.005,2240.998,1214.003,"Pictures_Onset",1180.992,"10","Healthy",10,50,65,4,"no","up","Right",0,"FS","FL",18,"up",530,1,"Guest10"
71,0.62146383523941,0.517260909080505,56.6601448059082,134.494354248047,42.115364074707,366.003,2607.002,1580.007,"Pictures_Onset",1546.996,"10","Healthy",10,50,65,4,"no","up","Right",0,"FS","FL",18,"up",530,1,"Guest10"
72,0.372407406568527,0.482703745365143,-60.8522186279297,143.117034912109,45.2529640197754,133.005,1245.005,216.999,"Pictures_Onset",184.999,"10","Healthy",10,50,65,1,"no","up","Right",1,"FL","FS",18,"up",549,1,"Guest10"
72,0.583000063896179,0.48603031039238,38.4593963623047,142.236663818359,44.9339332580566,165.991,1561.011,533.005,"Pictures_Onset",501.005,"10","Sugary",10,50,65,1,"no","up","Right",1,"FL","FS",18,"up",549,1,"Guest10"
72,0.642036974430084,0.484407365322113,66.3185195922852,142.641296386719,45.0809211730957,282.995,1777.011,749.005,"Pictures_Onset",717.005,"10","Sugary",10,50,65,1,"no","up","Right",1,"FL","FS",18,"up",549,1,"Guest10"
72,0.636041700839996,0.458916664123535,63.5658340454102,148.940826416016,47.3724975585938,116.007,2094.003,1065.997,"Pictures_Onset",1033.997,"10","Sugary",10,50,65,1,"no","up","Right",1,"FL","FS",18,"up",549,1,"Guest10"
72,0.371755570173264,0.489399969577789,-61.1444435119629,141.388671875,44.6237754821777,233.997,2276.006,1248,"Pictures_Onset",1216,"10","Healthy",10,50,65,1,"no","up","Right",1,"FL","FS",18,"up",549,1,"Guest10"
72,0.651222288608551,0.478962957859039,70.6703720092773,143.994262695312,45.5720367431641,281.997,2593.011,1565.005,"Pictures_Onset",1533.005,"10","Sugary",10,50,65,1,"no","up","Right",1,"FL","FS",18,"up",549,1,"Guest10"
73,0.38911110162735,0.494370400905609,-52.9770355224609,140.167785644531,44.180736541748,132.992,1445.005,416,"Pictures_Onset",384.999,"10","Sugary",10,50,65,3,"no","down","Left",1,"FS","FL",19,"down",491,1,"Guest10"
73,0.430249959230423,0.489472240209579,-33.5436096191406,141.40055847168,44.6288871765137,182.989,1894.003,864.998,"Pictures_Onset",833.997,"10","Sugary",10,50,65,3,"no","down","Left",1,"FS","FL",19,"down",491,1,"Guest10"
73,0.43258062005043,0.500731110572815,-32.4491386413574,138.583969116211,43.603759765625,498.995,2110.003,1080.998,"Pictures_Onset",1049.997,"10","Sugary",10,50,65,3,"no","down","Left",1,"FS","FL",19,"down",491,1,"Guest10"
73,0.584894776344299,0.515982449054718,39.3584213256836,134.784744262695,42.220874786377,300.006,2675.994,1646.989,"Pictures_Onset",1615.988,"10","Healthy",10,50,65,3,"no","down","Left",1,"FS","FL",19,"down",491,1,"Guest10"
74,0.388638943433762,0.492277711629868,-53.1470794677734,140.704299926758,44.3748664855957,383.001,1249.997,216.999,"Pictures_Onset",189.991,"10","Healthy",10,50,65,4,"no","down","Left",0,"FL","FS",19,"up",435,0,"Guest10"
74,0.596571445465088,0.495158731937408,44.8846054077148,139.959365844727,44.1044464111328,334.003,1697.997,664.999,"Pictures_Onset",637.991,"10","Sugary",10,50,65,4,"no","down","Left",0,"FL","FS",19,"up",435,0,"Guest10"
74,0.402682185173035,0.48906210064888,-46.5447273254395,141.486114501953,44.6582946777344,699.008,2131.994,1098.996,"Pictures_Onset",1071.988,"10","Healthy",10,50,65,4,"no","down","Left",0,"FL","FS",19,"up",435,0,"Guest10"
74,0.420333325862885,0.474333316087723,-38.2837524414062,145.160430908203,45.9983291625977,117.005,2864,1831.002,"Pictures_Onset",1803.994,"10","Healthy",10,50,65,4,"no","down","Left",0,"FL","FS",19,"up",435,0,"Guest10"
75,0.635883390903473,0.499316692352295,63.441162109375,138.962677001953,43.740665435791,316.992,1354.995,333.005,"Pictures_Onset",294.989,"10","Healthy",10,50,65,1,"no","up","Right",0,"FS","FL",19,"up",478,1,"Guest10"
75,0.437410235404968,0.493102580308914,-30.1371784210205,140.521789550781,44.3084564208984,200,1737.997,716.007,"Pictures_Onset",677.991,"10","Sugary",10,50,65,1,"no","up","Right",0,"FS","FL",19,"up",478,1,"Guest10"
75,0.612999975681305,0.473051249980927,52.609489440918,145.44514465332,46.1002578735352,200,2004.992,983.002,"Pictures_Onset",944.986,"10","Healthy",10,50,65,1,"no","up","Right",0,"FS","FL",19,"up",478,1,"Guest10"
75,0.41302564740181,0.473794877529144,-41.6761512756348,145.281539916992,46.0400009155273,199.001,2353.997,1332.007,"Pictures_Onset",1293.991,"10","Sugary",10,50,65,1,"no","up","Right",0,"FS","FL",19,"up",478,1,"Guest10"
75,0.591072499752045,0.471753627061844,42.3372421264648,145.81086730957,46.2344932556152,366.003,2619.994,1598.004,"Pictures_Onset",1559.988,"10","Healthy",10,50,65,1,"no","up","Right",0,"FS","FL",19,"up",478,1,"Guest10"
76,0.409296244382858,0.490055620670319,-43.4938850402832,141.233871459961,44.5677757263184,284.007,1522.995,498.995,"Pictures_Onset",462.989,"10","Healthy",10,50,65,2,"no","up","Right",1,"FL","FS",19,"up",435,1,"Guest10"
77,0.38225644826889,0.48617947101593,-56.1635894775391,142.224624633789,44.927433013916,199.002,1472,449.997,"Pictures_Onset",411.994,"10","Sugary",10,50,65,4,"no","down","Left",1,"FS","FL",20,"down",412,1,"Guest10"
77,0.376222193241119,0.515648186206818,-59.0503730773926,134.887390136719,42.2566680908203,281.997,1704,681.997,"Pictures_Onset",643.994,"10","Sugary",10,50,65,4,"no","down","Left",1,"FS","FL",20,"down",412,1,"Guest10"
77,0.608385920524597,0.500333309173584,50.4514045715332,138.689483642578,43.6415748596191,298.995,2054.003,1032,"Pictures_Onset",993.997,"10","Healthy",10,50,65,4,"no","down","Left",1,"FS","FL",20,"down",412,1,"Guest10"
77,0.606102585792542,0.507025599479675,49.3702583312988,137.024627685547,43.0353851318359,200,2385.997,1363.994,"Pictures_Onset",1325.991,"10","Healthy",10,50,65,4,"no","down","Left",1,"FS","FL",20,"down",412,1,"Guest10"
77,0.551435947418213,0.507769227027893,23.6789741516113,136.815368652344,42.9600028991699,199.001,2635.994,1613.991,"Pictures_Onset",1575.988,"10","Healthy",10,50,65,4,"no","down","Left",1,"FS","FL",20,"down",412,1,"Guest10"
78,0.616090834140778,0.470636278390884,54.1245460510254,146.105773925781,46.3412132263184,166.003,1324.992,165.99,"Pictures_Onset",264.986,"10","Sugary",10,50,65,1,"no","down","Left",0,"FL","FS",20,"down",474,1,"Guest10"
78,0.39903923869133,0.476529389619827,-48.3053016662598,144.619598388672,45.8003921508789,265.997,1608,448.998,"Pictures_Onset",547.994,"10","Healthy",10,50,65,1,"no","down","Left",0,"FL","FS",20,"down",474,1,"Guest10"
78,0.591083347797394,0.480354219675064,42.3620872497559,143.643737792969,45.4470825195312,250.01,1956.992,797.99,"Pictures_Onset",896.986,"10","Sugary",10,50,65,1,"no","down","Left",0,"FL","FS",20,"down",474,1,"Guest10"
78,0.56764280796051,0.475976198911667,31.1659526824951,144.76643371582,45.8519020080566,216.998,2240,1080.998,"Pictures_Onset",1179.994,"10","Sugary",10,50,65,1,"no","down","Left",0,"FL","FS",20,"down",474,1,"Guest10"
79,0.42214161157608,0.528266727924347,-37.3393821716309,131.744567871094,41.1135063171387,1314.01,1021.99,0,"Pictures_Onset",-38.0160000000001,"10","Sugary",10,50,65,2,"no","up","Right",0,"FS","FL",20,"up",485,1,"Guest10"
