"trial_id","sx","sy","px","py","pz","duration","timestamp","trial_onset","label","label_onset","subject_nr.x","AOI_visited","subject_nr.y","fat_craving","sugar_craving","Block","practice","Arrow_Direction","Arrow_Position","Congruence","Left_Picture","Right_Picture","Pair_Number","response","response_time","accuracy","part_ID"
1,0.409403473138809,0.493526309728622,-42.9647331237793,140.512466430664,44.3056106567383,299.994,1252.006,216.998,"Pictures_Onset",200.998,"06","Salty",6,30,40,1,"no","up","Left",1,"FF","FL",1,"up",588,1,"Guest06"
1,0.403354197740555,0.486083328723907,-45.8802070617676,142.347930908203,44.9733352661133,249.012,1584.998,549.99,"Pictures_Onset",533.99,"06","Salty",6,30,40,1,"no","up","Left",1,"FF","FL",1,"up",588,1,"Guest06"
1,0.606730759143829,0.490756392478943,51.2142333984375,141.182312011719,44.5500030517578,416.998,1917.005,881.997,"Pictures_Onset",865.997,"06","Healthy",6,30,40,1,"no","up","Left",1,"FF","FL",1,"up",588,1,"Guest06"
1,0.614903509616852,0.503412306308746,55.0566711425781,137.989822387695,43.3878059387207,614.003,2368,1332.992,"Pictures_Onset",1316.992,"06","Healthy",6,30,40,1,"no","up","Left",1,"FF","FL",1,"up",588,1,"Guest06"
2,0.43941667675972,0.488291680812836,-28.6329174041748,141.802490234375,44.7741661071777,116.006,1299.994,266.996,"Pictures_Onset",248.986,"06","Healthy",6,30,40,2,"no","up","Left",0,"FL","FF",1,"up",601,1,"Guest06"
2,0.406148195266724,0.487999975681305,-44.4944458007812,141.86018371582,44.7961082458496,281.997,1449.997,416.999,"Pictures_Onset",398.989,"06","Healthy",6,30,40,2,"no","up","Left",0,"FL","FF",1,"up",601,1,"Guest06"
2,0.373555570840836,0.474111109972,-60.0155601501465,145.379348754883,46.0762214660645,232,1799.002,766.004,"Pictures_Onset",747.994,"06","Healthy",6,30,40,2,"no","up","Left",0,"FL","FF",1,"up",601,1,"Guest06"
2,0.353074043989182,0.454481452703476,-69.7651824951172,150.328140258789,47.8770332336426,134.004,2064.998,1032,"Pictures_Onset",1013.99,"06","Healthy",6,30,40,2,"no","up","Left",0,"FL","FF",1,"up",601,1,"Guest06"
2,0.398999959230423,0.470487117767334,-47.9243583679199,146.307693481445,46.4135894775391,199.002,2248.998,1216,"Pictures_Onset",1197.99,"06","Healthy",6,30,40,2,"no","up","Left",0,"FL","FF",1,"up",601,1,"Guest06"
2,0.40155553817749,0.50518524646759,-46.6214790344238,137.547393798828,43.2255592346191,134.003,2480,1447.002,"Pictures_Onset",1428.992,"06","Healthy",6,30,40,2,"no","up","Left",0,"FL","FF",1,"up",601,1,"Guest06"
2,0.627796351909637,0.48953703045845,61.2759246826172,141.494644165039,44.663143157959,281.997,2697.997,1664.999,"Pictures_Onset",1646.989,"06","Salty",6,30,40,2,"no","up","Left",0,"FL","FF",1,"up",601,1,"Guest06"
3,0.406333327293396,0.480699926614761,-44.4086647033691,143.695007324219,45.4630012512207,233.997,1424,399.002,"Pictures_Onset",372.992,"06","Salty",6,30,40,3,"no","down","Right",0,"FF","FL",1,"down",568,1,"Guest06"
3,0.628739774227142,0.486203253269196,61.6534156799316,142.323806762695,44.9640655517578,664.999,1758.003,733.005,"Pictures_Onset",706.995,"06","Healthy",6,30,40,3,"no","down","Right",0,"FF","FL",1,"down",568,1,"Guest06"
3,0.60091108083725,0.487844407558441,48.4231147766113,141.90510559082,44.8117828369141,232.998,2456,1431.002,"Pictures_Onset",1404.992,"06","Healthy",6,30,40,3,"no","down","Right",0,"FF","FL",1,"down",568,1,"Guest06"
4,0.430803030729294,0.475318223237991,-32.7204551696777,145.074554443359,45.9654541015625,350.004,1328.998,298.995,"Pictures_Onset",277.99,"06","Healthy",6,30,40,4,"no","down","Right",1,"FL","FF",1,"down",617,1,"Guest06"
4,0.590822219848633,0.485577762126923,43.679557800293,142.472900390625,45.0182151794434,232.998,1745.997,715.994,"Pictures_Onset",694.989,"06","Salty",6,30,40,4,"no","down","Right",1,"FL","FF",1,"down",617,1,"Guest06"
4,0.614301025867462,0.486634403467178,54.7849426269531,142.248825073242,44.9368782043457,499.994,2012.006,982.003,"Pictures_Onset",960.998,"06","Salty",6,30,40,4,"no","down","Right",1,"FL","FF",1,"down",617,1,"Guest06"
4,0.383069396018982,0.477236032485962,-55.4908332824707,144.593490600586,45.7902793884277,381.99,2595.008,1565.005,"Pictures_Onset",1544,"06","Healthy",6,30,40,4,"no","down","Right",1,"FL","FF",1,"down",617,1,"Guest06"
5,0.613933265209198,0.484244525432587,54.5471076965332,142.795791625977,45.1366653442383,233.011,1358.989,332.992,"Pictures_Onset",307.981,"06","Healthy",6,30,40,2,"no","up","Left",1,"FF","FL",2,"up",634,1,"Guest06"
5,0.626385927200317,0.469736844301224,60.602466583252,146.481399536133,46.4777221679688,299.994,1624.998,599.001,"Pictures_Onset",573.99,"06","Healthy",6,30,40,2,"no","up","Left",1,"FF","FL",2,"up",634,1,"Guest06"
5,0.402435898780823,0.480359017848969,-46.2589721679688,143.808486938477,45.5043601989746,198.989,2008,982.003,"Pictures_Onset",956.992,"06","Salty",6,30,40,2,"no","up","Left",1,"FF","FL",2,"up",634,1,"Guest06"
5,0.398385971784592,0.472649127244949,-48.1056137084961,145.753875732422,46.2122802734375,299.994,2240.998,1215.001,"Pictures_Onset",1189.99,"06","Salty",6,30,40,2,"no","up","Left",1,"FF","FL",2,"up",634,1,"Guest06"
5,0.592962980270386,0.498999953269958,44.6411056518555,139.135177612305,43.8029670715332,281.997,2624,1598.003,"Pictures_Onset",1572.992,"06","Healthy",6,30,40,2,"no","up","Left",1,"FF","FL",2,"up",634,1,"Guest06"
6,0.392444491386414,0.488366633653641,-51.0393218994141,141.807998657227,44.777889251709,482.01,1368,331.994,"Pictures_Onset",316.992,"06","Healthy",6,30,40,3,"no","up","Left",0,"FL","FF",2,"up",517,1,"Guest06"
6,0.59077775478363,0.489424228668213,43.574951171875,141.517593383789,44.6701965332031,532.007,1950.003,913.997,"Pictures_Onset",898.995,"06","Salty",6,30,40,3,"no","up","Left",0,"FL","FF",2,"up",517,1,"Guest06"
6,0.589566707611084,0.498016685247421,42.9674949645996,139.370498657227,43.8899955749512,316.992,2516.006,1480,"Pictures_Onset",1464.998,"06","Salty",6,30,40,3,"no","up","Left",0,"FL","FF",2,"up",517,1,"Guest06"
7,0.592568635940552,0.467960774898529,44.4372520446777,146.934906005859,46.6423530578613,264.999,1552.998,533.004,"Pictures_Onset",501.99,"06","Healthy",6,30,40,4,"no","down","Right",0,"FF","FL",2,"down",548,1,"Guest06"
7,0.62064915895462,0.474087715148926,57.8010520935059,145.353317260742,46.0670204162598,298.995,1851.994,832,"Pictures_Onset",800.986,"06","Healthy",6,30,40,4,"no","down","Right",0,"FF","FL",2,"down",548,1,"Guest06"
7,0.428720414638519,0.494494587182999,-33.7211799621582,140.256790161133,44.2123680114746,498.995,2266.995,1247.001,"Pictures_Onset",1215.987,"06","Salty",6,30,40,4,"no","down","Right",0,"FF","FL",2,"down",548,1,"Guest06"
8,0.39224448800087,0.506466627120972,-51.0888900756836,137.207550048828,43.1017799377441,232,1392,367.002,"Pictures_Onset",340.992,"06","Healthy",6,30,40,1,"no","down","Right",1,"FL","FF",2,"down",507,1,"Guest06"
8,0.393291682004929,0.507208347320557,-50.6333312988281,137.066665649414,43.0500030517578,115.993,1657.997,632.999,"Pictures_Onset",606.989,"06","Healthy",6,30,40,1,"no","down","Right",1,"FL","FF",2,"down",507,1,"Guest06"
8,0.597377300262451,0.484773516654968,46.7166633605957,142.688232421875,45.0973625183105,864.998,1857.997,832.999,"Pictures_Onset",806.989,"06","Salty",6,30,40,1,"no","down","Right",1,"FL","FF",2,"down",507,1,"Guest06"
8,0.619555532932281,0.497518539428711,57.3388862609863,139.528137207031,43.9477767944336,134.003,2771.994,1746.996,"Pictures_Onset",1720.986,"06","Salty",6,30,40,1,"no","down","Right",1,"FL","FF",2,"down",507,1,"Guest06"
9,0.403555512428284,0.487250059843063,-45.7295837402344,142.063613891602,44.8701362609863,383.002,1380.006,350.003,"Pictures_Onset",328.998,"06","Salty",6,30,40,3,"no","up","Left",1,"FF","FL",3,"up",575,1,"Guest06"
9,0.620313763618469,0.461509764194489,57.6878433227539,148.570404052734,47.2380409240723,549.004,1863.002,832.999,"Pictures_Onset",811.994,"06","Healthy",6,30,40,3,"no","up","Left",1,"FF","FL",3,"up",575,1,"Guest06"
9,0.596833407878876,0.503537058830261,46.429630279541,137.955764770508,43.3744430541992,281.997,2446.003,1416,"Pictures_Onset",1394.995,"06","Healthy",6,30,40,3,"no","up","Left",1,"FF","FL",3,"up",575,1,"Guest06"
9,0.583027780056,0.519249975681305,39.867504119873,134.06721496582,41.9583320617676,184,2760.998,1730.995,"Pictures_Onset",1709.99,"06","Healthy",6,30,40,3,"no","up","Left",1,"FF","FL",3,"up",575,1,"Guest06"
10,0.412979125976562,0.465916663408279,-41.2472877502441,147.466461181641,46.8360443115234,249.997,1528,498.995,"Pictures_Onset",476.992,"06","Healthy",6,30,40,4,"no","up","Left",0,"FL","FF",3,"up",576,1,"Guest06"
10,0.407266676425934,0.444133371114731,-43.9309959411621,152.930999755859,48.826000213623,317.005,1810.995,781.99,"Pictures_Onset",759.987,"06","Healthy",6,30,40,4,"no","up","Left",0,"FL","FF",3,"up",576,1,"Guest06"
10,0.617877185344696,0.477578908205032,56.5231628417969,144.507537841797,45.7599983215332,300.006,2209.997,1180.992,"Pictures_Onset",1158.989,"06","Salty",6,30,40,4,"no","up","Left",0,"FL","FF",3,"up",576,1,"Guest06"
10,0.358043491840363,0.491434752941132,-67.4020309448242,141.028701782227,44.4928970336914,365.005,2593.997,1564.992,"Pictures_Onset",1542.989,"06","Healthy",6,30,40,4,"no","up","Left",0,"FL","FF",3,"up",576,1,"Guest06"
12,0.585916638374329,0.492749959230423,41.1694488525391,140.66194152832,44.35888671875,183.002,1448,399.002,"Pictures_Onset",396.992,"06","Salty",6,30,40,2,"no","down","Right",1,"FL","FF",3,"down",538,1,"Guest06"
12,0.609023869037628,0.486952364444733,52.2964363098145,142.13737487793,44.8950004577637,216,1781.005,732.007,"Pictures_Onset",729.997,"06","Salty",6,30,40,2,"no","down","Right",1,"FL","FF",3,"down",538,1,"Guest06"
12,0.384851813316345,0.488203674554825,-54.6450042724609,141.820907592773,44.7818489074707,282.995,2081.011,1032.013,"Pictures_Onset",1030.003,"06","Healthy",6,30,40,2,"no","down","Right",1,"FL","FF",3,"down",538,1,"Guest06"
12,0.388490796089172,0.463500082492828,-52.8917541503906,148.047058105469,47.0474090576172,582.003,2397.005,1348.007,"Pictures_Onset",1345.997,"06","Healthy",6,30,40,2,"no","down","Right",1,"FL","FF",3,"down",538,1,"Guest06"
13,0.592877149581909,0.489842116832733,44.5021057128906,141.452270507812,44.6473693847656,299.993,1477.005,448,"Pictures_Onset",425.997,"06","Healthy",6,30,40,4,"no","up","Left",1,"FF","FL",4,"up",481,1,"Guest06"
13,0.5953528881073,0.490921586751938,45.7709770202637,141.157638549805,44.5394096374512,266.009,1809.997,780.992,"Pictures_Onset",758.989,"06","Healthy",6,30,40,4,"no","up","Left",1,"FF","FL",4,"up",481,1,"Guest06"
13,0.616233348846436,0.473266661167145,55.7490005493164,145.618988037109,46.1629981994629,148.992,2110.003,1080.998,"Pictures_Onset",1058.995,"06","Healthy",6,30,40,4,"no","up","Left",1,"FF","FL",4,"up",481,1,"Guest06"
13,0.389693289995193,0.469906687736511,-52.3348007202148,146.452133178711,46.466796875,399.001,2343.002,1313.997,"Pictures_Onset",1291.994,"06","Salty",6,30,40,4,"no","up","Left",1,"FF","FL",4,"up",481,1,"Guest06"
14,0.400024771690369,0.506049394607544,-47.4196357727051,137.324447631836,43.1448097229004,432,1282.995,249.997,"Pictures_Onset",231.987,"06","Healthy",6,30,40,1,"no","up","Left",0,"FL","FF",4,"up",643,1,"Guest06"
14,0.627472221851349,0.486749976873398,61.0902671813965,142.208755493164,44.922779083252,382.988,1815.002,782.004,"Pictures_Onset",763.994,"06","Salty",6,30,40,1,"no","up","Left",0,"FL","FF",4,"up",643,1,"Guest06"
14,0.643791675567627,0.487166672945023,68.8327026367188,142.093338012695,44.8806228637695,249.996,2231.002,1198.004,"Pictures_Onset",1179.994,"06","Salty",6,30,40,1,"no","up","Left",0,"FL","FF",4,"up",643,1,"Guest06"
14,0.637696981430054,0.437696933746338,65.9190902709961,154.572128295898,49.4242401123047,167.001,2513.997,1480.999,"Pictures_Onset",1462.989,"06","Salty",6,30,40,1,"no","up","Left",0,"FL","FF",4,"up",643,1,"Guest06"
14,0.383589744567871,0.509692251682281,-55.2697372436523,136.414367675781,42.815128326416,200,2779.994,1746.996,"Pictures_Onset",1728.986,"06","Healthy",6,30,40,1,"no","up","Left",0,"FL","FF",4,"up",643,1,"Guest06"
15,0.407433420419693,0.472233444452286,-43.8426666259766,145.866348266602,46.2531661987305,316.992,1304.998,281.996,"Pictures_Onset",253.99,"06","Salty",6,30,40,2,"no","down","Right",0,"FF","FL",4,"down",476,1,"Guest06"
15,0.381595224142075,0.478476196527481,-56.1821365356445,144.293334960938,45.6828536987305,216,1655.002,632,"Pictures_Onset",603.994,"06","Salty",6,30,40,2,"no","down","Right",0,"FF","FL",4,"down",476,1,"Guest06"
15,0.58141028881073,0.486564129590988,39.1166648864746,142.212310791016,44.923583984375,200,1953.997,930.995,"Pictures_Onset",902.989,"06","Healthy",6,30,40,2,"no","down","Right",0,"FF","FL",4,"down",476,1,"Guest06"
15,0.623854160308838,0.480145812034607,59.3122940063477,143.86686706543,45.5258331298828,248.998,2271.002,1248,"Pictures_Onset",1219.994,"06","Healthy",6,30,40,2,"no","down","Right",0,"FF","FL",4,"down",476,1,"Guest06"
15,0.627051293849945,0.475910246372223,60.862434387207,144.936294555664,45.9148788452148,416.999,2552.998,1529.996,"Pictures_Onset",1501.99,"06","Healthy",6,30,40,2,"no","down","Right",0,"FF","FL",4,"down",476,1,"Guest06"
16,0.390850007534027,0.512566685676575,-51.771167755127,135.707504272461,42.5568351745605,316.007,1350.003,317.005,"Pictures_Onset",298.995,"06","Healthy",6,30,40,3,"no","down","Right",1,"FL","FF",4,"down",518,1,"Guest06"
16,0.612683773040771,0.499811947345734,53.979061126709,138.921875,43.7266616821289,632,1749.005,716.007,"Pictures_Onset",697.997,"06","Salty",6,30,40,3,"no","down","Right",1,"FL","FF",4,"down",518,1,"Guest06"
17,0.401581734418869,0.49016335606575,-46.7053604125977,141.331314086914,44.6036682128906,832,1360.998,333.004,"Pictures_Onset",309.99,"06","Salty",6,30,40,1,"no","up","Left",1,"FF","FL",5,"up",754,1,"Guest06"
17,0.572833359241486,0.48493754863739,35.0808334350586,142.669586181641,45.0910415649414,249.996,2275.994,1248,"Pictures_Onset",1224.986,"06","Healthy",6,30,40,1,"no","up","Left",1,"FF","FL",5,"up",754,1,"Guest06"
17,0.602720022201538,0.480679959058762,49.2894744873047,143.703598022461,45.4665374755859,398.988,2559.002,1531.008,"Pictures_Onset",1507.994,"06","Healthy",6,30,40,1,"no","up","Left",1,"FF","FL",5,"up",754,1,"Guest06"
18,0.407145828008652,0.474562495946884,-44.0481185913086,145.296875,46.046875,248.998,1240,216,"Pictures_Onset",188.992,"06","Healthy",6,30,40,2,"no","up","Left",0,"FL","FF",5,"up",512,1,"Guest06"
18,0.403037071228027,0.469555526971817,-45.918888092041,146.552947998047,46.5033340454102,133.005,1522.995,498.995,"Pictures_Onset",471.987,"06","Healthy",6,30,40,2,"no","up","Left",0,"FL","FF",5,"up",512,1,"Guest06"
18,0.373238146305084,0.474174648523331,-60.210319519043,145.351577758789,46.0666618347168,334.004,1688.998,664.998,"Pictures_Onset",637.99,"06","Healthy",6,30,40,2,"no","up","Left",0,"FL","FF",5,"up",512,1,"Guest06"
18,0.63191294670105,0.497420310974121,63.1827507019043,139.499145507812,43.935359954834,366.004,2104.998,1080.998,"Pictures_Onset",1053.99,"06","Salty",6,30,40,2,"no","up","Left",0,"FL","FF",5,"up",512,1,"Guest06"
18,0.607588231563568,0.51490193605423,51.5945129394531,135.126663208008,42.345100402832,265.997,2504.998,1480.998,"Pictures_Onset",1453.99,"06","Salty",6,30,40,2,"no","up","Left",0,"FL","FF",5,"up",512,1,"Guest06"
18,0.430592596530914,0.485222280025482,-32.8825912475586,142.559631347656,45.049633026123,133.005,2853.99,1829.99,"Pictures_Onset",1802.982,"06","Healthy",6,30,40,2,"no","up","Left",0,"FL","FF",5,"up",512,1,"Guest06"
19,0.395377784967422,0.466311126947403,-49.615779876709,147.345764160156,46.7924385070801,232.999,1364.006,333.004,"Pictures_Onset",312.998,"06","Salty",6,30,40,3,"no","down","Right",0,"FF","FL",5,"down",485,1,"Guest06"
19,0.615255534648895,0.477322190999985,55.2216720581055,144.582107543945,45.7867813110352,480.999,1681.011,650.009,"Pictures_Onset",630.003,"06","Healthy",6,30,40,3,"no","down","Right",0,"FF","FL",5,"down",485,1,"Guest06"
19,0.580119967460632,0.480653315782547,38.4401321411133,143.713577270508,45.4698638916016,400,2195.008,1164.006,"Pictures_Onset",1144,"06","Healthy",6,30,40,3,"no","down","Right",0,"FF","FL",5,"down",485,1,"Guest06"
20,0.393298208713531,0.482403606176376,-50.6332473754883,143.281585693359,45.3129005432129,616.998,1331.008,299.008,"Pictures_Onset",280,"06","Healthy",6,30,40,4,"no","down","Right",1,"FL","FF",5,"down",537,1,"Guest06"
20,0.578055560588837,0.464333325624466,37.4991645812988,147.839431762695,46.9708366394043,183.002,2112.998,1080.998,"Pictures_Onset",1061.99,"06","Salty",6,30,40,4,"no","down","Right",1,"FL","FF",5,"down",537,1,"Guest06"
20,0.613499939441681,0.494166761636734,54.4042892456055,140.346664428711,44.2457160949707,216,2329.997,1297.997,"Pictures_Onset",1278.989,"06","Salty",6,30,40,4,"no","down","Right",1,"FL","FF",5,"down",537,1,"Guest06"
20,0.611666679382324,0.499500006437302,53.5016670227051,139.019287109375,43.7611923217773,216,2580.006,1548.006,"Pictures_Onset",1528.998,"06","Salty",6,30,40,4,"no","down","Right",1,"FL","FF",5,"down",537,1,"Guest06"
21,0.590999960899353,0.473555564880371,43.6940040588379,145.52490234375,46.128662109375,232.999,1492.006,449.996,"Pictures_Onset",440.998,"06","Healthy",6,30,40,2,"no","down","Left",1,"FF","FL",6,"down",485,1,"Guest06"
21,0.393152803182602,0.486972212791443,-50.6823616027832,142.151794433594,44.9008369445801,383.001,1807.002,764.992,"Pictures_Onset",755.994,"06","Salty",6,30,40,2,"no","down","Left",1,"FF","FL",6,"down",485,1,"Guest06"
21,0.587939381599426,0.49174240231514,42.1884841918945,140.928024291992,44.4568176269531,350.004,2356.006,1313.996,"Pictures_Onset",1304.998,"06","Healthy",6,30,40,2,"no","down","Left",1,"FF","FL",6,"down",485,1,"Guest06"
22,0.393246412277222,0.471884161233902,-50.6389846801758,145.937240600586,46.2805824279785,365.99,1328,299.008,"Pictures_Onset",276.992,"06","Healthy",6,30,40,3,"no","down","Left",0,"FL","FF",6,"down",531,1,"Guest06"
22,0.643696904182434,0.484045416116714,68.7643966674805,142.889709472656,45.1712074279785,349.005,1794.995,766.003,"Pictures_Onset",743.987,"06","Salty",6,30,40,3,"no","down","Left",0,"FL","FF",6,"down",531,1,"Guest06"
22,0.618407368659973,0.486074090003967,56.7922210693359,142.387405395508,44.9859275817871,131.993,2177.997,1149.005,"Pictures_Onset",1126.989,"06","Salty",6,30,40,3,"no","down","Left",0,"FL","FF",6,"down",531,1,"Guest06"
22,0.435708284378052,0.486104190349579,-30.3908348083496,142.355422973633,44.9745826721191,249.997,2392.998,1364.006,"Pictures_Onset",1341.99,"06","Healthy",6,30,40,3,"no","down","Left",0,"FL","FF",6,"down",531,1,"Guest06"
22,0.573882341384888,0.50600004196167,35.5405921936035,137.369018554688,43.161376953125,266.01,2709.99,1680.998,"Pictures_Onset",1658.982,"06","Salty",6,30,40,3,"no","down","Left",0,"FL","FF",6,"down",531,1,"Guest06"
23,0.418590992689133,0.477909058332443,-38.5610618591309,144.422119140625,45.7287864685059,349.99,1319.002,283.008,"Pictures_Onset",267.994,"06","Salty",6,30,40,4,"no","up","Right",0,"FF","FL",6,"up",627,1,"Guest06"
23,0.415166646242142,0.471916645765305,-40.152774810791,145.953048706055,46.2861137390137,182.989,1702.003,666.009,"Pictures_Onset",650.995,"06","Salty",6,30,40,4,"no","up","Right",0,"FF","FL",6,"up",627,1,"Guest06"
23,0.384642899036407,0.483000010251999,-54.7252388000488,143.15119934082,45.2642860412598,216.013,1917.99,881.996,"Pictures_Onset",866.982,"06","Salty",6,30,40,4,"no","up","Right",0,"FF","FL",6,"up",627,1,"Guest06"
23,0.384629607200623,0.480629593133926,-54.6729583740234,143.787048339844,45.4974060058594,132.992,2168,1132.006,"Pictures_Onset",1116.992,"06","Salty",6,30,40,4,"no","up","Right",0,"FF","FL",6,"up",627,1,"Guest06"
23,0.6198690533638,0.479845255613327,57.4051284790039,143.934387207031,45.5510749816895,450.01,2532.992,1496.998,"Pictures_Onset",1481.984,"06","Healthy",6,30,40,4,"no","up","Right",0,"FF","FL",6,"up",627,1,"Guest06"
24,0.601752758026123,0.498172014951706,48.8079528808594,139.323867797852,43.8729095458984,498.995,1491.008,466.01,"Pictures_Onset",440,"06","Salty",6,30,40,1,"no","up","Right",1,"FL","FF",6,"up",661,1,"Guest06"
24,0.622751295566559,0.490802228450775,58.8089256286621,141.18473815918,44.5506896972656,965.004,2023.002,998.004,"Pictures_Onset",971.994,"06","Salty",6,30,40,1,"no","up","Right",1,"FL","FF",6,"up",661,1,"Guest06"
25,0.401769280433655,0.482576966285706,-46.567440032959,143.257949829102,45.3044815063477,416,1380.006,349.004,"Pictures_Onset",328.998,"06","Salty",6,30,40,3,"no","down","Left",1,"FF","FL",7,"down",543,1,"Guest06"
25,0.383686244487762,0.496431410312653,-55.2000045776367,139.74626159668,44.02587890625,264.999,1830.003,799.001,"Pictures_Onset",778.995,"06","Salty",6,30,40,3,"no","down","Left",1,"FF","FL",7,"down",543,1,"Guest06"
25,0.598037004470825,0.49570369720459,47.0425872802734,139.926300048828,44.0914840698242,132.992,2179.008,1148.006,"Pictures_Onset",1128,"06","Healthy",6,30,40,3,"no","down","Left",1,"FF","FL",7,"down",543,1,"Guest06"
25,0.60114449262619,0.49593323469162,48.5148887634277,139.877990722656,44.0739974975586,482.995,2345.011,1314.009,"Pictures_Onset",1294.003,"06","Healthy",6,30,40,3,"no","down","Left",1,"FF","FL",7,"down",543,1,"Guest06"
25,0.61662495136261,0.487833350896835,55.9129180908203,141.922500610352,44.8195877075195,117.005,2861.005,1830.003,"Pictures_Onset",1809.997,"06","Healthy",6,30,40,3,"no","down","Left",1,"FF","FL",7,"down",543,1,"Guest06"
26,0.398400008678436,0.474866598844528,-48.1742858886719,145.180953979492,46.0045700073242,566.003,1322.995,300.006,"Pictures_Onset",271.987,"06","Healthy",6,30,40,4,"no","down","Left",0,"FL","FF",7,"down",533,1,"Guest06"
26,0.589901983737946,0.48305881023407,43.1919593811035,143.122741699219,45.2550964355469,265.996,1971.994,949.005,"Pictures_Onset",920.986,"06","Salty",6,30,40,4,"no","down","Left",0,"FL","FF",7,"down",533,1,"Guest06"
26,0.60616660118103,0.489666640758514,51.0583343505859,141.448333740234,44.6466674804688,101.005,2270.989,1248,"Pictures_Onset",1219.981,"06","Salty",6,30,40,4,"no","down","Left",0,"FL","FF",7,"down",533,1,"Guest06"
26,0.622391223907471,0.476579666137695,58.6759414672852,144.774917602539,45.8560829162598,366.003,2404.992,1382.003,"Pictures_Onset",1353.984,"06","Salty",6,30,40,4,"no","down","Left",0,"FL","FF",7,"down",533,1,"Guest06"
26,0.620888829231262,0.482444435358047,57.9441680908203,143.325546264648,45.3302764892578,184,2803.994,1781.005,"Pictures_Onset",1752.986,"06","Salty",6,30,40,4,"no","down","Left",0,"FL","FF",7,"down",533,1,"Guest06"
27,0.414559960365295,0.4908666908741,-40.4888000488281,141.189483642578,44.5517272949219,400,1394.01,349.005,"Pictures_Onset",343.002,"06","Salty",6,30,40,1,"no","up","Right",0,"FF","FL",7,"up",604,1,"Guest06"
27,0.587903261184692,0.488166600465775,42.203540802002,141.849685668945,44.791934967041,1015.001,1877.005,832,"Pictures_Onset",825.997,"06","Healthy",6,30,40,1,"no","up","Right",0,"FF","FL",7,"up",604,1,"Guest06"
28,0.399949997663498,0.477766692638397,-47.457332611084,144.44416809082,45.735668182373,315.993,1381.005,282.995,"Pictures_Onset",329.997,"06","Healthy",6,30,40,2,"no","up","Right",1,"FL","FF",7,"up",571,1,"Guest06"
28,0.379121214151382,0.487212151288986,-57.3451538085938,142.102722167969,44.8842430114746,167.001,1730.01,632,"Pictures_Onset",679.002,"06","Healthy",6,30,40,2,"no","up","Right",1,"FL","FF",7,"up",571,1,"Guest06"
28,0.568444430828094,0.476111114025116,32.8695526123047,144.886871337891,45.897331237793,233.997,1980.006,881.996,"Pictures_Onset",928.998,"06","Salty",6,30,40,2,"no","up","Right",1,"FL","FF",7,"up",571,1,"Guest06"
28,0.605144202709198,0.472846835851669,50.4221649169922,145.704147338867,46.195858001709,599.002,2264,1165.99,"Pictures_Onset",1212.992,"06","Salty",6,30,40,2,"no","up","Right",1,"FL","FF",7,"up",571,1,"Guest06"
29,0.43207848072052,0.471313714981079,-32.1213722229004,146.077056884766,46.3305816650391,265.997,1332.006,299.008,"Pictures_Onset",280.998,"06","Salty",6,30,40,4,"no","down","Left",1,"FF","FL",8,"down",649,1,"Guest06"
29,0.417558610439301,0.45369365811348,-39.0094566345215,150.530166625977,47.9510879516602,598.003,1632,599.002,"Pictures_Onset",580.992,"06","Salty",6,30,40,4,"no","down","Left",1,"FF","FL",8,"down",649,1,"Guest06"
29,0.618609189987183,0.470494240522385,56.8672370910645,146.273666381836,46.4017295837402,466.996,2312.998,1280,"Pictures_Onset",1261.99,"06","Healthy",6,30,40,4,"no","down","Left",1,"FF","FL",8,"down",649,1,"Guest06"
29,0.642933368682861,0.472400009632111,68.4026641845703,145.822341918945,46.237003326416,150.003,2830.003,1797.005,"Pictures_Onset",1778.995,"06","Healthy",6,30,40,4,"no","down","Left",1,"FF","FL",8,"down",649,1,"Guest06"
30,0.392324566841125,0.4911228120327,-51.0982398986816,141.079116821289,44.5121917724609,298.995,1490.995,464.998,"Pictures_Onset",439.987,"06","Healthy",6,30,40,1,"no","down","Left",0,"FL","FF",8,"down",421,1,"Guest06"
30,0.585644423961639,0.495066732168198,41.1140022277832,140.113327026367,44.1617813110352,232,1873.997,848,"Pictures_Onset",822.989,"06","Salty",6,30,40,1,"no","down","Left",0,"FL","FF",8,"down",421,1,"Guest06"
30,0.585780024528503,0.501019954681396,41.1674690246582,138.628128051758,43.6189994812012,815.001,2139.994,1113.997,"Pictures_Onset",1088.986,"06","Salty",6,30,40,1,"no","down","Left",0,"FL","FF",8,"down",421,1,"Guest06"
31,0.42848414182663,0.476095259189606,-33.8431739807129,144.902679443359,45.904052734375,333.671666666667,1246.003,216.998,"Pictures_Onset",194.995,"06","Salty",6,30,40,2,"no","up","Right",0,"FF","FL",8,"up",549,1,"Guest06"
31,0.415277808904648,0.461222171783447,-40.1904182434082,148.617630004883,47.2558326721191,183.002,1612.006,583.001,"Pictures_Onset",560.998,"06","Salty",6,30,40,2,"no","up","Right",0,"FF","FL",8,"up",549,1,"Guest06"
31,0.400948703289032,0.453923106193542,-46.98974609375,150.483093261719,47.932559967041,200,1828.006,799.001,"Pictures_Onset",776.998,"06","Salty",6,30,40,2,"no","up","Right",0,"FF","FL",8,"up",549,1,"Guest06"
31,0.35730305314064,0.499484837055206,-67.8339385986328,139.003921508789,43.756664276123,167.001,2077.005,1048,"Pictures_Onset",1025.997,"06","Salty",6,30,40,2,"no","up","Right",0,"FF","FL",8,"up",549,1,"Guest06"
31,0.617229104042053,0.480708330869675,56.1706237792969,143.706665039062,45.4681205749512,250.009,2327.002,1297.997,"Pictures_Onset",1275.994,"06","Healthy",6,30,40,2,"no","up","Right",0,"FF","FL",8,"up",549,1,"Guest06"
31,0.6352898478508,0.481898605823517,64.8356628417969,143.423492431641,45.3646392822266,365.99,2610.01,1581.005,"Pictures_Onset",1559.002,"06","Healthy",6,30,40,2,"no","up","Right",0,"FF","FL",8,"up",549,1,"Guest06"
32,0.395253360271454,0.488386660814285,-49.684268951416,141.795333862305,44.7717323303223,400,1588.992,567.002,"Pictures_Onset",537.984,"06","Healthy",6,30,40,3,"no","up","Right",1,"FL","FF",8,"up",627,1,"Guest06"
32,0.586633324623108,0.496933311223984,41.5653305053711,139.656341552734,43.9941673278809,317.005,2070.989,1048.999,"Pictures_Onset",1019.981,"06","Salty",6,30,40,3,"no","up","Right",1,"FL","FF",8,"up",627,1,"Guest06"
32,0.605666697025299,0.50378429889679,50.6415672302246,137.906173706055,43.3567581176758,550.003,2419.994,1398.004,"Pictures_Onset",1368.986,"06","Salty",6,30,40,3,"no","up","Right",1,"FL","FF",8,"up",627,1,"Guest06"
33,0.410363644361496,0.488018244504929,-42.440185546875,141.875152587891,44.8018760681152,898.01,1392,367.002,"Pictures_Onset",340.992,"06","Salty",6,30,40,1,"no","down","Left",1,"FF","FL",9,"down",525,1,"Guest06"
33,0.595041632652283,0.481624960899353,45.6570816040039,143.519378662109,45.4000015258789,249.997,2374.003,1349.005,"Pictures_Onset",1322.995,"06","Healthy",6,30,40,1,"no","down","Left",1,"FF","FL",9,"down",525,1,"Guest06"
33,0.625333309173584,0.487516701221466,60.0561637878418,141.979522705078,44.8398361206055,316.007,2672.998,1648,"Pictures_Onset",1621.99,"06","Healthy",6,30,40,1,"no","down","Left",1,"FF","FL",9,"down",525,1,"Guest06"
34,0.368267953395844,0.493699431419373,-62.5896797180176,140.450256347656,44.2835235595703,832,1441.011,416,"Pictures_Onset",390.003,"06","Healthy",6,30,40,2,"no","down","Left",0,"FL","FF",9,"down",508,1,"Guest06"
34,0.613019466400146,0.473921537399292,54.2082290649414,145.442749023438,46.1001014709473,550.004,2372.006,1346.995,"Pictures_Onset",1320.998,"06","Salty",6,30,40,2,"no","down","Left",0,"FL","FF",9,"down",508,1,"Guest06"
35,0.40978330373764,0.481800019741058,-42.7408294677734,143.459671020508,45.3779983520508,315.994,1249.011,217.011,"Pictures_Onset",198.003,"06","Salty",6,30,40,3,"no","up","Right",0,"FF","FL",9,"up",558,1,"Guest06"
35,0.394916653633118,0.495895832777023,-49.8283309936523,139.910629272461,44.0866622924805,249.997,1598.003,566.003,"Pictures_Onset",546.995,"06","Salty",6,30,40,3,"no","up","Right",0,"FF","FL",9,"up",558,1,"Guest06"
35,0.626273930072784,0.489625036716461,60.5066604614258,141.4541015625,44.648509979248,914.995,1965.005,933.005,"Pictures_Onset",913.997,"06","Healthy",6,30,40,3,"no","up","Right",0,"FF","FL",9,"up",558,1,"Guest06"
36,0.408451646566391,0.466860145330429,-43.4345207214355,147.219161987305,46.746452331543,499.994,1248.998,215.001,"Pictures_Onset",197.99,"06","Healthy",6,30,40,4,"no","up","Right",1,"FL","FF",9,"up",595,1,"Guest06"
36,0.63890814781189,0.47562637925148,66.5219650268555,144.991882324219,45.9358024597168,946.996,1832.998,799.001,"Pictures_Onset",781.99,"06","Salty",6,30,40,4,"no","up","Right",1,"FL","FF",9,"up",595,1,"Guest06"
36,0.389875024557114,0.480625033378601,-52.3437461853027,143.772079467773,45.4941711425781,116.992,2864,1830.003,"Pictures_Onset",1812.992,"06","Healthy",6,30,40,4,"no","up","Right",1,"FL","FF",9,"up",595,1,"Guest06"
37,0.411509841680527,0.486392140388489,-41.9727439880371,142.289001464844,44.9533348083496,265.997,1291.008,266.01,"Pictures_Onset",240,"06","Salty",6,30,40,2,"no","down","Left",1,"FF","FL",10,"down",586,1,"Guest06"
37,0.38390988111496,0.460477471351624,-55.108470916748,148.831283569336,47.3326148986816,599.002,1590.003,565.005,"Pictures_Onset",538.995,"06","Salty",6,30,40,2,"no","down","Left",1,"FF","FL",10,"down",586,1,"Guest06"
37,0.602230787277222,0.476846188306808,49.0846138000488,144.707183837891,45.8325614929199,199.002,2272.998,1248,"Pictures_Onset",1221.99,"06","Healthy",6,30,40,2,"no","down","Left",1,"FF","FL",10,"down",586,1,"Guest06"
37,0.626526296138763,0.493999987840652,60.6529846191406,140.369476318359,44.2535095214844,299.994,2505.011,1480.013,"Pictures_Onset",1454.003,"06","Healthy",6,30,40,2,"no","down","Left",1,"FF","FL",10,"down",586,1,"Guest06"
37,0.624566674232483,0.502433300018311,59.6559982299805,138.231002807617,43.4746627807617,150.003,2838.003,1813.005,"Pictures_Onset",1786.995,"06","Healthy",6,30,40,2,"no","down","Left",1,"FF","FL",10,"down",586,1,"Guest06"
38,0.382057070732117,0.502971470355988,-55.995719909668,138.110763549805,43.4309577941895,566.003,1417.997,381.991,"Pictures_Onset",366.989,"06","Healthy",6,30,40,3,"no","down","Left",0,"FL","FF",10,"down",531,1,"Guest06"
38,0.391518503427505,0.492888867855072,-51.4659271240234,140.632965087891,44.3511161804199,133.99,2018.01,982.004,"Pictures_Onset",967.002,"06","Healthy",6,30,40,3,"no","down","Left",0,"FL","FF",10,"down",531,1,"Guest06"
38,0.621684610843658,0.486108124256134,58.2735176086426,142.359100341797,44.9772109985352,600,2251.008,1215.002,"Pictures_Onset",1200,"06","Salty",6,30,40,3,"no","down","Left",0,"FL","FF",10,"down",531,1,"Guest06"
39,0.420771926641464,0.48250874876976,-37.3896446228027,143.264221191406,45.3066711425781,298.995,1398.003,368,"Pictures_Onset",346.995,"06","Salty",6,30,40,4,"no","up","Right",0,"FF","FL",10,"up",545,1,"Guest06"
39,0.588377833366394,0.48186668753624,42.3435592651367,143.444244384766,45.3726654052734,233.997,1761.997,731.994,"Pictures_Onset",710.989,"06","Healthy",6,30,40,4,"no","up","Right",0,"FF","FL",10,"up",545,1,"Guest06"
39,0.622538506984711,0.46833336353302,58.735897064209,146.886413574219,46.6261520385742,198.003,2047.002,1016.999,"Pictures_Onset",995.994,"06","Healthy",6,30,40,4,"no","up","Right",0,"FF","FL",10,"up",545,1,"Guest06"
39,0.623952388763428,0.467587321996689,59.3679313659668,146.988403320312,46.6620559692383,331.993,2279.002,1248.999,"Pictures_Onset",1227.994,"06","Healthy",6,30,40,4,"no","up","Right",0,"FF","FL",10,"up",545,1,"Guest06"
40,0.395564079284668,0.495564132928848,-49.5282020568848,139.979232788086,44.1112861633301,200,1520,482.01,"Pictures_Onset",468.992,"06","Healthy",6,30,40,1,"no","up","Right",1,"FL","FF",10,"up",491,1,"Guest06"
40,0.392351865768433,0.489611089229584,-51.0362930297852,141.494079589844,44.6620330810547,282.995,1753.997,716.007,"Pictures_Onset",702.989,"06","Healthy",6,30,40,1,"no","up","Right",1,"FL","FF",10,"up",491,1,"Guest06"
40,0.57408332824707,0.472937554121017,35.5577049255371,145.675842285156,46.1839561462402,249.996,2119.002,1081.012,"Pictures_Onset",1067.994,"06","Salty",6,30,40,1,"no","up","Right",1,"FL","FF",10,"up",491,1,"Guest06"
40,0.596766650676727,0.487399995326996,46.4943313598633,142.033340454102,44.857666015625,149.005,2402.995,1365.005,"Pictures_Onset",1351.987,"06","Salty",6,30,40,1,"no","up","Right",1,"FL","FF",10,"up",491,1,"Guest06"
41,0.406682640314102,0.474412679672241,-44.2419090270996,145.298400878906,46.0463485717773,333.004,1339.994,315.994,"Pictures_Onset",288.986,"06","Sugary",6,30,40,3,"no","up","Left",1,"FS","FL",11,"up",535,1,"Guest06"
41,0.599749982357025,0.487250000238419,47.7911071777344,142.070281982422,44.8719444274902,184,1755.994,731.994,"Pictures_Onset",704.986,"06","Healthy",6,30,40,3,"no","up","Left",1,"FS","FL",11,"up",535,1,"Guest06"
41,0.624989986419678,0.493828237056732,59.8825302124023,140.413146972656,44.2693824768066,533.005,1988.992,964.992,"Pictures_Onset",937.984,"06","Healthy",6,30,40,3,"no","up","Left",1,"FS","FL",11,"up",535,1,"Guest06"
42,0.402543783187866,0.501315772533417,-46.2368469238281,138.519638061523,43.5808792114258,299.008,1348.992,315.994,"Pictures_Onset",297.984,"06","Healthy",6,30,40,4,"no","up","Left",0,"FL","FS",11,"up",629,1,"Guest06"
42,0.610145926475525,0.499833345413208,52.8437461853027,138.923736572266,43.7266693115234,249.996,1731.994,698.996,"Pictures_Onset",680.986,"06","Sugary",6,30,40,4,"no","up","Left",0,"FL","FS",11,"up",629,1,"Guest06"
42,0.622333288192749,0.458827197551727,58.6309852600098,149.202972412109,47.4692573547363,432,2015.002,982.004,"Pictures_Onset",963.994,"06","Sugary",6,30,40,4,"no","up","Left",0,"FL","FS",11,"up",629,1,"Guest06"
42,0.420842111110687,0.490140408277512,-37.5028076171875,141.333160400391,44.6031608581543,298.995,2530.995,1497.997,"Pictures_Onset",1479.987,"06","Healthy",6,30,40,4,"no","up","Left",0,"FL","FS",11,"up",629,1,"Guest06"
42,0.419958353042603,0.490249991416931,-37.9166679382324,141.314590454102,44.595832824707,115.993,2863.002,1830.004,"Pictures_Onset",1811.994,"06","Healthy",6,30,40,4,"no","up","Left",0,"FL","FS",11,"up",629,1,"Guest06"
43,0.407299995422363,0.484273374080658,-43.9510688781738,142.811264038086,45.1419982910156,815.002,1364.992,333.99,"Pictures_Onset",313.984,"06","Sugary",6,30,40,1,"no","down","Right",0,"FS","FL",11,"down",569,1,"Guest06"
43,0.62360155582428,0.490902453660965,59.2035369873047,141.1689453125,44.5440216064453,666.662666666667,2279.002,1248,"Pictures_Onset",1227.994,"06","Healthy",6,30,40,1,"no","down","Right",0,"FS","FL",11,"down",569,1,"Guest06"
44,0.409361124038696,0.475069433450699,-42.9680595397949,145.114852905273,45.9804077148438,383.001,1333.005,299.994,"Pictures_Onset",281.997,"06","Healthy",6,30,40,2,"no","down","Right",1,"FL","FS",11,"down",515,1,"Guest06"
44,0.572333335876465,0.487944453954697,34.8286094665527,141.871109008789,44.8005561828613,183.002,1782.003,748.992,"Pictures_Onset",730.995,"06","Sugary",6,30,40,2,"no","down","Right",1,"FL","FS",11,"down",515,1,"Guest06"
44,0.601285636425018,0.443380951881409,48.580638885498,153.127471923828,48.8974533081055,331.994,2116.006,1082.995,"Pictures_Onset",1064.998,"06","Sugary",6,30,40,2,"no","down","Right",1,"FL","FS",11,"down",515,1,"Guest06"
44,0.610200047492981,0.438933342695236,52.8924026489258,154.226928710938,49.2974662780762,398.989,2481.011,1448,"Pictures_Onset",1430.003,"06","Sugary",6,30,40,2,"no","down","Right",1,"FL","FS",11,"down",515,1,"Guest06"
45,0.598410248756409,0.495000034570694,47.1994819641113,140.140274047852,44.170768737793,200.998,1504,482.01,"Pictures_Onset",452.992,"06","Healthy",6,30,40,4,"no","up","Left",1,"FS","FL",12,"up",706,1,"Guest06"
45,0.624851882457733,0.49596294760704,59.8107376098633,139.83332824707,44.0566635131836,133.005,1753.997,732.007,"Pictures_Onset",702.989,"06","Healthy",6,30,40,4,"no","up","Left",1,"FS","FL",12,"up",706,1,"Guest06"
45,0.3986956179142,0.498637706041336,-48.0852165222168,139.215362548828,43.833911895752,366.003,1986.995,965.005,"Pictures_Onset",935.987,"06","Sugary",6,30,40,4,"no","up","Left",1,"FS","FL",12,"up",706,1,"Guest06"
45,0.552439391613007,0.511636316776276,25.2934856414795,135.929397583008,42.6363639831543,349.004,2419.994,1398.004,"Pictures_Onset",1368.986,"06","Healthy",6,30,40,4,"no","up","Left",1,"FS","FL",12,"up",706,1,"Guest06"
46,0.612229108810425,0.492562502622604,53.8147926330566,140.698974609375,44.3714599609375,248.998,1387.008,349.005,"Pictures_Onset",336,"06","Sugary",6,30,40,1,"no","up","Left",0,"FL","FS",12,"up",494,1,"Guest06"
46,0.620222210884094,0.461416631937027,57.596248626709,148.594177246094,47.2466621398926,382.003,1670.003,632,"Pictures_Onset",618.995,"06","Sugary",6,30,40,1,"no","up","Left",0,"FL","FS",12,"up",494,1,"Guest06"
46,0.414622217416763,0.518355548381805,-40.4353370666504,134.229995727539,42.0182266235352,233.996,2135.002,1096.999,"Pictures_Onset",1083.994,"06","Healthy",6,30,40,1,"no","up","Left",0,"FL","FS",12,"up",494,1,"Guest06"
46,0.408666670322418,0.533833265304565,-43.2050018310547,130.371658325195,40.6166687011719,133.005,2401.997,1363.994,"Pictures_Onset",1350.989,"06","Healthy",6,30,40,1,"no","up","Left",0,"FL","FS",12,"up",494,1,"Guest06"
46,0.392692357301712,0.516435921192169,-50.9084625244141,134.715515136719,42.1964111328125,416,2568,1529.997,"Pictures_Onset",1516.992,"06","Healthy",6,30,40,1,"no","up","Left",0,"FL","FS",12,"up",494,1,"Guest06"
47,0.400754362344742,0.469245612621307,-47.1335983276367,146.584381103516,46.515438079834,300.007,1317.99,281.996,"Pictures_Onset",266.982,"06","Sugary",6,30,40,2,"no","down","Right",0,"FS","FL",12,"down",490,1,"Guest06"
47,0.612891316413879,0.48565948009491,54.1108665466309,142.470062255859,45.0173187255859,748.007,1717.99,681.996,"Pictures_Onset",666.982,"06","Healthy",6,30,40,2,"no","down","Right",0,"FS","FL",12,"down",490,1,"Guest06"
47,0.613759279251099,0.52312970161438,54.5662994384766,133.037033081055,41.5827789306641,281.996,2499.994,1464,"Pictures_Onset",1448.986,"06","Healthy",6,30,40,2,"no","down","Right",0,"FS","FL",12,"down",490,1,"Guest06"
48,0.390196055173874,0.499372601509094,-52.1309814453125,139.015274047852,43.7609786987305,267.008,1418.995,397.99,"Pictures_Onset",367.987,"06","Healthy",6,30,40,3,"no","down","Right",1,"FL","FS",12,"down",527,1,"Guest06"
48,0.387051284313202,0.497307658195496,-53.6058959960938,139.513092041016,43.941535949707,200,1719.002,697.997,"Pictures_Onset",667.994,"06","Healthy",6,30,40,3,"no","down","Right",1,"FL","FS",12,"down",527,1,"Guest06"
48,0.371217399835587,0.504623174667358,-61.1257972717285,137.713485717773,43.2868156433105,365.005,1952.998,931.993,"Pictures_Onset",901.99,"06","Healthy",6,30,40,3,"no","down","Right",1,"FL","FS",12,"down",527,1,"Guest06"
48,0.595897436141968,0.488435804843903,46.0323028564453,141.745880126953,44.7535934448242,199.001,2417.997,1396.992,"Pictures_Onset",1366.989,"06","Sugary",6,30,40,3,"no","down","Right",1,"FL","FS",12,"down",527,1,"Guest06"
48,0.616222262382507,0.46231746673584,55.6942825317383,148.336990356445,47.1533317565918,332.007,2650.995,1629.99,"Pictures_Onset",1599.987,"06","Sugary",6,30,40,3,"no","down","Right",1,"FL","FS",12,"down",527,1,"Guest06"
49,0.413407444953918,0.485259205102921,-41.0475959777832,142.565002441406,45.0522270202637,282.996,1352.998,316.006,"Pictures_Onset",301.99,"06","Sugary",6,30,40,1,"no","up","Left",1,"FS","FL",13,"up",776,1,"Guest06"
49,0.393509238958359,0.504361093044281,-50.5235137939453,137.764343261719,43.3049163818359,582.003,1668.992,632,"Pictures_Onset",617.984,"06","Sugary",6,30,40,1,"no","up","Left",1,"FS","FL",13,"up",776,1,"Guest06"
49,0.6026451587677,0.509666621685028,49.2573127746582,136.438385009766,42.8223686218262,499.008,2484.992,1448,"Pictures_Onset",1433.984,"06","Healthy",6,30,40,1,"no","up","Left",1,"FS","FL",13,"up",776,1,"Guest06"
50,0.416458308696747,0.469624996185303,-39.5745849609375,146.499786376953,46.484790802002,248.999,1308.006,283.008,"Pictures_Onset",256.998,"06","Healthy",6,30,40,2,"no","up","Left",0,"FL","FS",13,"up",573,1,"Guest06"
50,0.60577780008316,0.461466610431671,50.6486701965332,148.561340332031,47.2346611022949,232.999,1641.011,616.013,"Pictures_Onset",590.003,"06","Sugary",6,30,40,2,"no","up","Left",0,"FL","FS",13,"up",573,1,"Guest06"
50,0.624717831611633,0.4832563996315,59.8441009521484,143.039489746094,45.2258949279785,200,1907.008,882.01,"Pictures_Onset",856,"06","Sugary",6,30,40,2,"no","up","Left",0,"FL","FS",13,"up",573,1,"Guest06"
51,0.399755537509918,0.479488879442215,-47.5157814025879,144.027130126953,45.5839958190918,232.998,1363.994,332.992,"Pictures_Onset",312.986,"06","Sugary",6,30,40,3,"no","down","Right",0,"FS","FL",13,"down",578,1,"Guest06"
51,0.612802088260651,0.487333238124847,54.0766639709473,142.019805908203,44.8537559509277,515.994,1680,648.998,"Pictures_Onset",628.992,"06","Healthy",6,30,40,3,"no","down","Right",0,"FS","FL",13,"down",578,1,"Guest06"
51,0.409041672945023,0.49054166674614,-43.1297912597656,141.206481933594,44.5574989318848,383.002,2261.99,1230.988,"Pictures_Onset",1210.982,"06","Sugary",6,30,40,3,"no","down","Right",0,"FS","FL",13,"down",578,1,"Guest06"
52,0.416684180498123,0.478982537984848,-39.4647407531738,144.17350769043,45.6377143859863,301.005,1308.992,282.995,"Pictures_Onset",257.984,"06","Healthy",6,30,40,4,"no","down","Right",1,"FL","FS",13,"down",605,1,"Guest06"
52,0.617333292961121,0.476968258619308,56.2512741088867,144.669982910156,45.8190460205078,333.004,1691.994,665.997,"Pictures_Onset",640.986,"06","Sugary",6,30,40,4,"no","down","Right",1,"FL","FS",13,"down",605,1,"Guest06"
52,0.440119057893753,0.488309472799301,-28.2849998474121,141.790725708008,44.7704811096191,216,2107.994,1081.997,"Pictures_Onset",1056.986,"06","Healthy",6,30,40,4,"no","down","Right",1,"FL","FS",13,"down",605,1,"Guest06"
52,0.421061307191849,0.470815747976303,-37.3379821777344,146.194793701172,46.3737754821777,616,2357.99,1331.993,"Pictures_Onset",1306.982,"06","Healthy",6,30,40,4,"no","down","Right",1,"FL","FS",13,"down",605,1,"Guest06"
53,0.40725639462471,0.473692297935486,-43.9256401062012,145.467956542969,46.1079483032227,200,1308.006,284.006,"Pictures_Onset",256.998,"06","Sugary",6,30,40,2,"no","up","Left",1,"FS","FL",14,"up",574,1,"Guest06"
53,0.405777841806412,0.471333354711533,-44.6842193603516,146.040237426758,46.3177757263184,232.999,1540.006,516.006,"Pictures_Onset",488.998,"06","Sugary",6,30,40,2,"no","up","Left",1,"FS","FL",14,"up",574,1,"Guest06"
53,0.611309587955475,0.467702329158783,53.3374977111816,146.985488891602,46.6611862182617,448.999,1856.998,832.998,"Pictures_Onset",805.99,"06","Healthy",6,30,40,2,"no","up","Left",1,"FS","FL",14,"up",574,1,"Guest06"
53,0.387449979782104,0.47506657242775,-53.4229965209961,145.139007568359,45.9896697998047,315.993,2389.005,1365.005,"Pictures_Onset",1337.997,"06","Sugary",6,30,40,2,"no","up","Left",1,"FS","FL",14,"up",574,1,"Guest06"
54,0.404214322566986,0.479738056659698,-45.4069023132324,143.953811645508,45.5564231872559,216,1224.998,200,"Pictures_Onset",173.99,"06","Healthy",6,30,40,3,"no","up","Left",0,"FL","FS",14,"up",629,1,"Guest06"
54,0.384714275598526,0.48328572511673,-54.7154731750488,143.081909179688,45.2407188415527,216,1474.995,449.997,"Pictures_Onset",423.987,"06","Healthy",6,30,40,3,"no","up","Left",0,"FL","FS",14,"up",629,1,"Guest06"
54,0.600833296775818,0.480166673660278,48.3933372497559,143.847854614258,45.5188179016113,217.012,1773.99,748.992,"Pictures_Onset",722.982,"06","Sugary",6,30,40,3,"no","up","Left",0,"FL","FS",14,"up",629,1,"Guest06"
54,0.637301564216614,0.507539629936218,65.7646102905273,136.955856323242,43.0111083984375,332.992,2040,1015.002,"Pictures_Onset",988.992,"06","Sugary",6,30,40,3,"no","up","Left",0,"FL","FS",14,"up",629,1,"Guest06"
55,0.590666651725769,0.482166677713394,43.591251373291,143.370834350586,45.3454132080078,116.007,1845.99,816,"Pictures_Onset",794.982,"06","Healthy",6,30,40,4,"no","down","Right",0,"FS","FL",14,"down",565,1,"Guest06"
55,0.594505846500397,0.482011526823044,45.3606872558594,143.402847290039,45.3587379455566,465.997,1994.995,965.005,"Pictures_Onset",943.987,"06","Healthy",6,30,40,4,"no","down","Right",0,"FS","FL",14,"down",565,1,"Guest06"
55,0.603370368480682,0.475259304046631,49.651668548584,145.093338012695,45.9716682434082,283.008,2494.989,1464.999,"Pictures_Onset",1443.981,"06","Healthy",6,30,40,4,"no","down","Right",0,"FS","FL",14,"down",565,1,"Guest06"
55,0.383708328008652,0.495166689157486,-55.1916656494141,140.06623840332,44.1445808410645,116.006,2860.992,1831.002,"Pictures_Onset",1809.984,"06","Sugary",6,30,40,4,"no","down","Right",0,"FS","FL",14,"down",565,1,"Guest06"
56,0.425194472074509,0.488194435834885,-35.3661079406738,141.830001831055,44.7838897705078,184,1260.992,232.998,"Pictures_Onset",209.984,"06","Healthy",6,30,40,1,"no","down","Right",1,"FL","FS",14,"down",538,1,"Guest06"
56,0.389895796775818,0.489874958992004,-52.2870864868164,141.408126831055,44.631462097168,249.996,1495.002,467.008,"Pictures_Onset",443.994,"06","Healthy",6,30,40,1,"no","down","Right",1,"FL","FS",14,"down",538,1,"Guest06"
56,0.59798663854599,0.492400020360947,47.0537300109863,140.779205322266,44.4019966125488,400,1960,932.006,"Pictures_Onset",908.992,"06","Sugary",6,30,40,1,"no","down","Right",1,"FL","FS",14,"down",538,1,"Guest06"
56,0.626030385494232,0.48903027176857,60.4030303955078,141.619537353516,44.7086334228516,349.005,2393.997,1366.003,"Pictures_Onset",1342.989,"06","Sugary",6,30,40,1,"no","down","Right",1,"FL","FS",14,"down",538,1,"Guest06"
56,0.400700002908707,0.527633368968964,-47.120002746582,131.914016723633,41.1749992370605,148.992,2825.997,1798.003,"Pictures_Onset",1774.989,"06","Healthy",6,30,40,1,"no","down","Right",1,"FL","FS",14,"down",538,1,"Guest06"
57,0.401416659355164,0.4762222468853,-46.7669486999512,144.859146118164,45.8877830505371,183.002,1331.008,298.995,"Pictures_Onset",280,"06","Sugary",6,30,40,3,"no","up","Left",1,"FS","FL",15,"up",662,1,"Guest06"
57,0.397916615009308,0.475625038146973,-48.4254188537598,144.988342285156,45.9329147338867,249.997,1547.008,514.995,"Pictures_Onset",496,"06","Sugary",6,30,40,3,"no","up","Left",1,"FS","FL",15,"up",662,1,"Guest06"
57,0.411666631698608,0.483999967575073,-41.8666648864746,142.89811706543,45.1740570068359,366.003,1831.002,798.989,"Pictures_Onset",779.994,"06","Sugary",6,30,40,3,"no","up","Left",1,"FS","FL",15,"up",662,1,"Guest06"
57,0.601604223251343,0.463812500238419,48.7483367919922,147.99626159668,47.0279121398926,248.998,2280.013,1248,"Pictures_Onset",1229.005,"06","Healthy",6,30,40,3,"no","up","Left",1,"FS","FL",15,"up",662,1,"Guest06"
57,0.621847212314606,0.495986104011536,58.4112510681152,139.871383666992,44.0716667175293,382.004,2580.006,1547.993,"Pictures_Onset",1528.998,"06","Healthy",6,30,40,3,"no","up","Left",1,"FS","FL",15,"up",662,1,"Guest06"
58,0.407305598258972,0.483986139297485,-43.9365234375,142.903732299805,45.1744499206543,383.002,1328.998,299.008,"Pictures_Onset",277.99,"06","Healthy",6,30,40,4,"no","up","Left",0,"FL","FS",15,"up",642,1,"Guest06"
58,0.601649105548859,0.496719300746918,48.7814025878906,139.705444335938,44.012279510498,298.995,1795.994,766.004,"Pictures_Onset",744.986,"06","Sugary",6,30,40,4,"no","up","Left",0,"FL","FS",15,"up",642,1,"Guest06"
58,0.632436990737915,0.494066655635834,63.4538459777832,140.340957641602,44.2429618835449,731.994,2128,1098.01,"Pictures_Onset",1076.992,"06","Sugary",6,30,40,4,"no","up","Left",0,"FL","FS",15,"up",642,1,"Guest06"
59,0.436583340167999,0.495333343744278,-30.0074996948242,140.10041809082,44.15625,115.993,1343.002,316.007,"Pictures_Onset",291.994,"06","Sugary",6,30,40,1,"no","down","Right",0,"FS","FL",15,"down",505,1,"Guest06"
59,0.409583270549774,0.490483343601227,-42.8333396911621,141.267333984375,44.5813369750977,316.992,1509.005,482.01,"Pictures_Onset",457.997,"06","Sugary",6,30,40,1,"no","down","Right",0,"FS","FL",15,"down",505,1,"Guest06"
59,0.570121228694916,0.487545490264893,33.6530303955078,141.99153137207,44.8427314758301,167.002,1890.995,864,"Pictures_Onset",839.987,"06","Healthy",6,30,40,1,"no","down","Right",0,"FS","FL",15,"down",505,1,"Guest06"
59,0.605851829051971,0.493222236633301,50.734260559082,140.556686401367,44.3220367431641,283.008,2107.994,1080.999,"Pictures_Onset",1056.986,"06","Healthy",6,30,40,1,"no","down","Right",0,"FS","FL",15,"down",505,1,"Guest06"
59,0.633425891399384,0.503814816474915,63.9383354187012,137.889083862305,43.3499984741211,284.006,2440,1413.005,"Pictures_Onset",1388.992,"06","Healthy",6,30,40,1,"no","down","Right",0,"FS","FL",15,"down",505,1,"Guest06"
59,0.603333353996277,0.498138904571533,49.594165802002,139.319152832031,43.8705558776855,182.989,2757.005,1730.01,"Pictures_Onset",1705.997,"06","Healthy",6,30,40,1,"no","down","Right",0,"FS","FL",15,"down",505,1,"Guest06"
60,0.405259251594543,0.487296253442764,-44.8777770996094,142.038879394531,44.8625946044922,132.007,1264.998,233.996,"Pictures_Onset",213.99,"06","Healthy",6,30,40,2,"no","down","Right",1,"FL","FS",15,"down",575,1,"Guest06"
60,0.401589721441269,0.477358967065811,-46.6351280212402,144.565643310547,45.7815322875977,200,1431.002,400,"Pictures_Onset",379.994,"06","Healthy",6,30,40,2,"no","down","Right",1,"FL","FS",15,"down",575,1,"Guest06"
60,0.389333367347717,0.495717883110046,-52.5069198608398,139.934371948242,44.0938453674316,200,1664,632.998,"Pictures_Onset",612.992,"06","Healthy",6,30,40,2,"no","down","Right",1,"FL","FS",15,"down",575,1,"Guest06"
60,0.600130796432495,0.480339795351028,47.9987640380859,143.787170410156,45.4974479675293,832,1946.01,915.008,"Pictures_Onset",895.002,"06","Sugary",6,30,40,2,"no","down","Right",1,"FL","FS",15,"down",575,1,"Guest06"
61,0.405566692352295,0.486033350229263,-44.7436676025391,142.369995117188,44.982666015625,150.004,1272.998,249.996,"Pictures_Onset",221.99,"06","Sugary",6,30,40,4,"no","down","Left",1,"FS","FL",16,"down",493,1,"Guest06"
61,0.615960657596588,0.478480398654938,55.5872497558594,144.296264648438,45.6829414367676,549.004,1639.002,616,"Pictures_Onset",587.994,"06","Healthy",6,30,40,4,"no","down","Left",1,"FS","FL",16,"down",493,1,"Guest06"
61,0.603714168071747,0.468452394008636,49.7604713439941,146.799758911133,46.5942916870117,448.998,2338.01,1315.008,"Pictures_Onset",1287.002,"06","Healthy",6,30,40,4,"no","down","Left",1,"FS","FL",16,"down",493,1,"Guest06"
62,0.417523831129074,0.496000021696091,-39.0761909484863,139.835556030273,44.0585746765137,332.992,1307.008,282.01,"Pictures_Onset",256,"06","Healthy",6,30,40,1,"no","down","Left",0,"FL","FS",16,"down",403,1,"Guest06"
62,0.572671234607697,0.49015748500824,34.9368934631348,141.339126586914,44.6062049865723,1180.992,1724.006,699.008,"Pictures_Onset",672.998,"06","Sugary",6,30,40,1,"no","down","Left",0,"FL","FS",16,"down",403,1,"Guest06"
63,0.401523798704147,0.495071411132812,-46.6790466308594,140.130249023438,44.1654739379883,215.002,1285.99,249.996,"Pictures_Onset",234.982,"06","Sugary",6,30,40,2,"no","up","Right",0,"FS","FL",16,"up",541,1,"Guest06"
63,0.595773816108704,0.479809552431107,45.9511947631836,143.952850341797,45.5566635131836,448.999,1584.998,549.004,"Pictures_Onset",533.99,"06","Healthy",6,30,40,2,"no","up","Right",0,"FS","FL",16,"up",541,1,"Guest06"
63,0.622449994087219,0.468449980020523,58.7493362426758,146.816833496094,46.5998306274414,316.006,2083.994,1048,"Pictures_Onset",1032.986,"06","Healthy",6,30,40,2,"no","up","Right",0,"FS","FL",16,"up",541,1,"Guest06"
63,0.451047569513321,0.499666720628738,-23.0284099578857,138.953002929688,43.7392044067383,334.003,2465.997,1430.003,"Pictures_Onset",1414.989,"06","Sugary",6,30,40,2,"no","up","Right",0,"FS","FL",16,"up",541,1,"Guest06"
64,0.593529284000397,0.508764684200287,44.9092140197754,136.629013061523,42.8911781311035,268.007,1744.998,714.995,"Pictures_Onset",693.99,"06","Sugary",6,30,40,3,"no","up","Right",1,"FL","FS",16,"up",621,1,"Guest06"
64,0.596269190311432,0.510705053806305,46.1996192932129,136.151916503906,42.7185897827148,416.998,2045.005,1015.002,"Pictures_Onset",993.997,"06","Sugary",6,30,40,3,"no","up","Right",1,"FL","FS",16,"up",621,1,"Guest06"
64,0.403069406747818,0.518597185611725,-45.9598579406738,134.183197021484,42.002082824707,383.002,2528,1497.997,"Pictures_Onset",1476.992,"06","Healthy",6,30,40,3,"no","up","Right",1,"FL","FS",16,"up",621,1,"Guest06"
65,0.397111088037491,0.480722278356552,-48.804443359375,143.747512817383,45.4833335876465,183.001,1245.005,216,"Pictures_Onset",193.997,"06","Sugary",6,30,40,1,"no","down","Left",1,"FS","FL",17,"down",452,1,"Guest06"
65,0.38588884472847,0.478055566549301,-54.1419486999512,144.435256958008,45.7330513000488,183.002,1462.003,432.998,"Pictures_Onset",410.995,"06","Sugary",6,30,40,1,"no","down","Left",1,"FS","FL",17,"down",452,1,"Guest06"
65,0.603250026702881,0.495458334684372,49.4633331298828,139.978744506836,44.1083335876465,184,1728,698.995,"Pictures_Onset",676.992,"06","Healthy",6,30,40,1,"no","down","Left",1,"FS","FL",17,"down",452,1,"Guest06"
65,0.631576895713806,0.490602552890778,63.0716705322266,141.228088378906,44.5656394958496,416,1977.011,948.006,"Pictures_Onset",926.003,"06","Healthy",6,30,40,1,"no","down","Left",1,"FS","FL",17,"down",452,1,"Guest06"
65,0.390316635370255,0.49129992723465,-52.0003280639648,141.029006958008,44.4926643371582,316.006,2477.005,1448,"Pictures_Onset",1425.997,"06","Sugary",6,30,40,1,"no","down","Left",1,"FS","FL",17,"down",452,1,"Guest06"
66,0.407041668891907,0.474312484264374,-44.035831451416,145.337921142578,46.0608329772949,250.01,1332.992,298.995,"Pictures_Onset",281.984,"06","Healthy",6,30,40,2,"no","down","Left",0,"FL","FS",17,"down",511,1,"Guest06"
66,0.397555530071259,0.479333341121674,-48.6651840209961,144.078140258789,45.604076385498,133.99,1615.002,581.005,"Pictures_Onset",563.994,"06","Healthy",6,30,40,2,"no","down","Left",0,"FL","FS",17,"down",511,1,"Guest06"
66,0.607908129692078,0.477448284626007,51.7602272033691,144.535385131836,45.7705726623535,464,1832.998,799.001,"Pictures_Onset",781.99,"06","Sugary",6,30,40,2,"no","down","Left",0,"FL","FS",17,"down",511,1,"Guest06"
66,0.617375016212463,0.468874990940094,56.3279190063477,146.6533203125,46.5400009155273,116.006,2331.994,1297.997,"Pictures_Onset",1280.986,"06","Sugary",6,30,40,2,"no","down","Left",0,"FL","FS",17,"down",511,1,"Guest06"
66,0.424058854579926,0.4886274933815,-35.970588684082,141.745697021484,44.7531356811523,265.997,2530.995,1496.998,"Pictures_Onset",1479.987,"06","Healthy",6,30,40,2,"no","down","Left",0,"FL","FS",17,"down",511,1,"Guest06"
66,0.424800008535385,0.497599989175797,-35.5799980163574,139.454666137695,43.9193344116211,148.992,2831.002,1797.005,"Pictures_Onset",1779.994,"06","Healthy",6,30,40,2,"no","down","Left",0,"FL","FS",17,"down",511,1,"Guest06"
67,0.411083310842514,0.480333358049393,-42.2229194641113,143.787506103516,45.497917175293,115.993,1237.005,216,"Pictures_Onset",185.997,"06","Sugary",6,30,40,3,"no","up","Right",0,"FS","FL",17,"up",613,1,"Guest06"
67,0.38888093829155,0.481738030910492,-52.752857208252,143.469039916992,45.3809509277344,214.989,1387.008,366.003,"Pictures_Onset",336,"06","Sugary",6,30,40,3,"no","up","Right",0,"FS","FL",17,"up",613,1,"Guest06"
67,0.638871729373932,0.484999984502792,66.5135879516602,142.611801147461,45.0715370178223,200,1686.003,664.998,"Pictures_Onset",634.995,"06","Healthy",6,30,40,3,"no","up","Right",0,"FS","FL",17,"up",613,1,"Guest06"
67,0.639051198959351,0.487820476293564,66.6110305786133,141.927444458008,44.820255279541,200,1918.003,896.998,"Pictures_Onset",866.995,"06","Healthy",6,30,40,3,"no","up","Right",0,"FS","FL",17,"up",613,1,"Guest06"
67,0.605879426002502,0.520772993564606,50.788444519043,133.617950439453,41.7956771850586,766.003,2151.002,1129.997,"Pictures_Onset",1099.994,"06","Healthy",6,30,40,3,"no","up","Right",0,"FS","FL",17,"up",613,1,"Guest06"
68,0.416166692972183,0.483533322811127,-39.7383346557617,143,45.208667755127,149.005,1260.992,233.997,"Pictures_Onset",209.984,"06","Healthy",6,30,40,4,"no","up","Right",1,"FL","FS",17,"up",578,1,"Guest06"
68,0.414230793714523,0.480256408452988,-40.6792335510254,143.824356079102,45.5110282897949,200,1442.995,416,"Pictures_Onset",391.987,"06","Healthy",6,30,40,4,"no","up","Right",1,"FL","FS",17,"up",578,1,"Guest06"
68,0.598641037940979,0.462128192186356,47.3692283630371,148.395889282227,47.1738471984863,200,1726.003,699.008,"Pictures_Onset",674.995,"06","Sugary",6,30,40,4,"no","up","Right",1,"FL","FS",17,"up",578,1,"Guest06"
68,0.620208323001862,0.467708349227905,57.6123542785645,147.018753051758,46.6736030578613,382.003,1960,933.005,"Pictures_Onset",908.992,"06","Sugary",6,30,40,4,"no","up","Right",1,"FL","FS",17,"up",578,1,"Guest06"
69,0.402666598558426,0.487549066543579,-46.214111328125,142.009796142578,44.8486175537109,266.009,1391.002,366.004,"Pictures_Onset",339.994,"06","Sugary",6,30,40,2,"no","down","Left",1,"FS","FL",18,"down",509,1,"Guest06"
69,0.626106679439545,0.494466662406921,60.3990631103516,140.245483398438,44.208667755127,399.001,1757.005,732.007,"Pictures_Onset",705.997,"06","Healthy",6,30,40,2,"no","down","Left",1,"FS","FL",18,"down",509,1,"Guest06"
69,0.611837863922119,0.50136935710907,53.6145973205566,138.493957519531,43.5703544616699,600,2189.005,1164.007,"Pictures_Onset",1137.997,"06","Healthy",6,30,40,2,"no","down","Left",1,"FS","FL",18,"down",509,1,"Guest06"
70,0.397583365440369,0.497958362102509,-48.5866661071777,139.372497558594,43.8895874023438,249.996,1346.01,316.007,"Pictures_Onset",295.002,"06","Healthy",6,30,40,3,"no","down","Left",0,"FL","FS",18,"down",439,1,"Guest06"
70,0.603941202163696,0.495509773492813,49.8268661499023,140.003540039062,44.1199951171875,265.996,1679.002,648.999,"Pictures_Onset",627.994,"06","Sugary",6,30,40,3,"no","down","Left",0,"FL","FS",18,"down",439,1,"Guest06"
70,0.625023782253265,0.488499969244003,59.8573875427246,141.773330688477,44.7645225524902,217.011,1977.997,947.994,"Pictures_Onset",926.989,"06","Sugary",6,30,40,3,"no","down","Left",0,"FL","FS",18,"down",439,1,"Guest06"
70,0.417791724205017,0.495250016450882,-38.9110412597656,140.071868896484,44.145622253418,248.998,2279.002,1248.999,"Pictures_Onset",1227.994,"06","Healthy",6,30,40,3,"no","down","Left",0,"FL","FS",18,"down",439,1,"Guest06"
71,0.593434751033783,0.506724715232849,44.8365173339844,137.147979736328,43.080867767334,365.991,1430.003,399.001,"Pictures_Onset",378.995,"06","Healthy",6,30,40,4,"no","up","Right",0,"FS","FL",18,"up",531,1,"Guest06"
71,0.424916654825211,0.512333333492279,-35.5144462585449,135.768600463867,42.5769500732422,182.988,1879.002,848,"Pictures_Onset",827.994,"06","Sugary",6,30,40,4,"no","up","Right",0,"FS","FL",18,"up",531,1,"Guest06"
71,0.422060579061508,0.50842422246933,-36.9233360290527,136.726348876953,42.9281768798828,166.003,2096,1064.998,"Pictures_Onset",1044.992,"06","Sugary",6,30,40,4,"no","up","Right",0,"FS","FL",18,"up",531,1,"Guest06"
71,0.41727277636528,0.481272727251053,-39.1448440551758,143.571212768555,45.4187889099121,164.992,2296,1264.998,"Pictures_Onset",1244.992,"06","Sugary",6,30,40,4,"no","up","Right",0,"FS","FL",18,"up",531,1,"Guest06"
71,0.564392149448395,0.498862713575363,30.9623565673828,139.133346557617,43.8037261962891,265.997,2528,1496.998,"Pictures_Onset",1476.992,"06","Healthy",6,30,40,4,"no","up","Right",0,"FS","FL",18,"up",531,1,"Guest06"
72,0.383806973695755,0.507210552692413,-55.1636848449707,137.028945922852,43.0363159179688,297.997,1364.006,334.003,"Pictures_Onset",312.998,"06","Healthy",6,30,40,1,"no","up","Right",1,"FL","FS",18,"up",634,1,"Guest06"
72,0.577574014663696,0.507629632949829,37.2614822387695,136.917221069336,42.9964790344238,282.995,1729.011,699.008,"Pictures_Onset",678.003,"06","Sugary",6,30,40,1,"no","up","Right",1,"FL","FS",18,"up",634,1,"Guest06"
72,0.611825406551361,0.502682507038116,53.6119041442871,138.18049621582,43.4573059082031,333.005,2062.003,1032,"Pictures_Onset",1010.995,"06","Sugary",6,30,40,1,"no","up","Right",1,"FL","FS",18,"up",634,1,"Guest06"
72,0.428354829549789,0.505946218967438,-33.9195671081543,137.350860595703,43.1544075012207,499.008,2478.003,1448,"Pictures_Onset",1426.995,"06","Healthy",6,30,40,1,"no","up","Right",1,"FL","FS",18,"up",634,1,"Guest06"
73,0.553051292896271,0.501512706279755,25.5210266113281,138.492050170898,43.5700035095215,200,1309.005,283.008,"Pictures_Onset",257.997,"06","Healthy",6,30,40,3,"no","down","Left",1,"FS","FL",19,"down",523,1,"Guest06"
73,0.601999938488007,0.506606042385101,48.8978843688965,137.226959228516,43.1096954345703,166.003,1559.002,533.005,"Pictures_Onset",507.994,"06","Healthy",6,30,40,3,"no","down","Left",1,"FS","FL",19,"down",523,1,"Guest06"
73,0.614822208881378,0.512688875198364,55.0691070556641,135.639541625977,42.5308876037598,232.998,1759.002,733.005,"Pictures_Onset",707.994,"06","Healthy",6,30,40,3,"no","down","Left",1,"FS","FL",19,"down",523,1,"Guest06"
73,0.398200035095215,0.516488790512085,-48.2668952941895,134.686889648438,42.184440612793,232.999,2074.995,1048.998,"Pictures_Onset",1023.987,"06","Sugary",6,30,40,3,"no","down","Left",1,"FS","FL",19,"down",523,1,"Guest06"
73,0.399622768163681,0.48492094874382,-47.6396408081055,142.670364379883,45.0901718139648,616,2341.005,1315.008,"Pictures_Onset",1289.997,"06","Sugary",6,30,40,3,"no","down","Left",1,"FS","FL",19,"down",523,1,"Guest06"
74,0.394833356142044,0.487500011920929,-49.8478775024414,142.01106262207,44.8498497009277,350.003,1411.994,383.002,"Pictures_Onset",360.986,"06","Healthy",6,30,40,4,"no","down","Left",0,"FL","FS",19,"down",483,1,"Guest06"
74,0.597100019454956,0.49264994263649,46.5395011901855,140.717147827148,44.3800048828125,316.006,1843.994,815.002,"Pictures_Onset",792.986,"06","Sugary",6,30,40,4,"no","down","Left",0,"FL","FS",19,"down",483,1,"Guest06"
74,0.62552946805954,0.472274452447891,60.1452941894531,145.835586547852,46.2426452636719,550.003,2209.997,1181.005,"Pictures_Onset",1158.989,"06","Sugary",6,30,40,4,"no","down","Left",0,"FL","FS",19,"down",483,1,"Guest06"
74,0.414962947368622,0.475888848304749,-40.2618560791016,144.953338623047,45.9222259521484,133.005,2842.995,1814.003,"Pictures_Onset",1791.987,"06","Healthy",6,30,40,4,"no","down","Left",0,"FL","FS",19,"down",483,1,"Guest06"
75,0.403138875961304,0.479888886213303,-45.9513893127441,143.981948852539,45.5677795410156,183.987,1279.002,249.012,"Pictures_Onset",227.994,"06","Sugary",6,30,40,1,"no","up","Right",0,"FS","FL",19,"up",578,1,"Guest06"
75,0.401507973670959,0.475968182086945,-46.6811103820801,144.904281616211,45.9034881591797,332.992,1496,466.01,"Pictures_Onset",444.992,"06","Sugary",6,30,40,1,"no","up","Right",0,"FS","FL",19,"up",578,1,"Guest06"
75,0.584000051021576,0.482030361890793,40.3493957519531,143.368179321289,45.3448524475098,165.99,1912,882.01,"Pictures_Onset",860.992,"06","Healthy",6,30,40,1,"no","up","Right",0,"FS","FL",19,"up",578,1,"Guest06"
75,0.626275658607483,0.503730833530426,60.542366027832,137.913848876953,43.3596115112305,848.998,2128,1098.01,"Pictures_Onset",1076.992,"06","Healthy",6,30,40,1,"no","up","Right",0,"FS","FL",19,"up",578,1,"Guest06"
76,0.398315787315369,0.479912370443344,-48.1919326782227,143.945602416992,45.5552673339844,299.993,1325.005,298.995,"Pictures_Onset",273.997,"06","Healthy",6,30,40,2,"no","up","Right",1,"FL","FS",19,"up",557,1,"Guest06"
76,0.590028941631317,0.482478260993958,43.1984024047852,143.268112182617,45.3088417053223,366.003,1791.002,764.992,"Pictures_Onset",739.994,"06","Sugary",6,30,40,2,"no","up","Right",1,"FL","FS",19,"up",557,1,"Guest06"
76,0.626435935497284,0.464064121246338,60.6142311096191,147.917449951172,47.0001220703125,416.998,2207.002,1180.992,"Pictures_Onset",1155.994,"06","Sugary",6,30,40,2,"no","up","Right",1,"FL","FS",19,"up",557,1,"Guest06"
77,0.436458319425583,0.468083322048187,-30.0366649627686,146.934158325195,46.6425018310547,116.006,1352,315.994,"Pictures_Onset",300.992,"06","Sugary",6,30,40,4,"no","down","Left",1,"FS","FL",20,"down",720,1,"Guest06"
77,0.412286669015884,0.463640093803406,-41.5581970214844,148.019866943359,47.0380668640137,815.002,1502.003,465.997,"Pictures_Onset",450.995,"06","Sugary",6,30,40,4,"no","down","Left",1,"FS","FL",20,"down",720,1,"Guest06"
77,0.639999985694885,0.479060620069504,67.0172653198242,144.18180847168,45.6387901306152,167.002,2400,1363.994,"Pictures_Onset",1348.992,"06","Healthy",6,30,40,4,"no","down","Left",1,"FS","FL",20,"down",720,1,"Guest06"
77,0.642599940299988,0.482960015535355,68.3426666259766,143.153060913086,45.2661323547363,399.002,2600,1563.994,"Pictures_Onset",1548.992,"06","Healthy",6,30,40,4,"no","down","Left",1,"FS","FL",20,"down",720,1,"Guest06"
78,0.403714329004288,0.474619090557098,-45.7095260620117,145.198577880859,46.0114250183105,101.005,1364.992,315.994,"Pictures_Onset",313.984,"06","Healthy",6,30,40,1,"no","down","Left",0,"FL","FS",20,"down",713,1,"Guest06"
78,0.603933334350586,0.481366693973541,49.8626670837402,143.524337768555,45.4026679992676,149.004,1531.994,482.996,"Pictures_Onset",480.986,"06","Sugary",6,30,40,1,"no","down","Left",0,"FL","FS",20,"down",713,1,"Guest06"
78,0.606190502643585,0.481190472841263,50.9804763793945,143.575714111328,45.420955657959,100.007,1714.995,665.997,"Pictures_Onset",663.987,"06","Sugary",6,30,40,1,"no","down","Left",0,"FL","FS",20,"down",713,1,"Guest06"
78,0.39466667175293,0.508045434951782,-49.9754638671875,136.822448730469,42.961971282959,350.004,1880.998,832,"Pictures_Onset",829.99,"06","Healthy",6,30,40,1,"no","down","Left",0,"FL","FS",20,"down",713,1,"Guest06"
78,0.392641097307205,0.502820491790771,-50.9382133483887,138.187164306641,43.4589767456055,199.002,2264.998,1216,"Pictures_Onset",1213.99,"06","Healthy",6,30,40,1,"no","down","Left",0,"FL","FS",20,"down",713,1,"Guest06"
78,0.355526298284531,0.522368431091309,-68.6119155883789,133.198440551758,41.6431617736816,298.996,2496.998,1448,"Pictures_Onset",1445.99,"06","Healthy",6,30,40,1,"no","down","Left",0,"FL","FS",20,"down",713,1,"Guest06"
78,0.433874994516373,0.511875033378601,-31.2491645812988,135.80583190918,42.5916709899902,116.006,2862.989,1813.991,"Pictures_Onset",1811.981,"06","Healthy",6,30,40,1,"no","down","Left",0,"FL","FS",20,"down",713,1,"Guest06"
79,0.404555648565292,0.466305524110794,-45.2252769470215,147.368347167969,46.8000030517578,282.01,1332.992,299.994,"Pictures_Onset",281.984,"06","Sugary",6,30,40,2,"no","up","Right",0,"FS","FL",20,"up",529,1,"Guest06"
79,0.397962987422943,0.486851841211319,-48.4107437133789,142.166656494141,44.9090766906738,133.337333333333,1649.66466666667,649.665666666667,"Pictures_Onset",631.655666666667,"06","Sugary",6,30,40,2,"no","up","Right",0,"FS","FL",20,"up",529,1,"Guest06"
79,0.620314061641693,0.477775633335114,57.6711502075195,144.455200195312,45.7403144836426,848.998,1881.997,848.999,"Pictures_Onset",830.989,"06","Healthy",6,30,40,2,"no","up","Right",0,"FS","FL",20,"up",529,1,"Guest06"
80,0.587695360183716,0.498723834753036,42.1041870117188,139.1806640625,43.8206634521484,565.005,1350.989,315.994,"Pictures_Onset",299.981,"06","Sugary",6,30,40,3,"no","up","Right",1,"FL","FS",20,"up",581,1,"Guest06"
80,0.380774527788162,0.493656843900681,-56.5947036743164,140.477462768555,44.292350769043,548.992,2000,965.005,"Pictures_Onset",948.992,"06","Healthy",6,30,40,3,"no","up","Right",1,"FL","FS",20,"up",581,1,"Guest06"
80,0.411416679620743,0.510583341121674,-41.9333343505859,136.183334350586,42.7294464111328,183.002,2581.99,1546.995,"Pictures_Onset",1530.982,"06","Healthy",6,30,40,3,"no","up","Right",1,"FL","FS",20,"up",581,1,"Guest06"
80,0.54792594909668,0.50344443321228,23.0633335113525,137.991485595703,43.3877792358398,131.994,2848.998,1814.003,"Pictures_Onset",1797.99,"06","Sugary",6,30,40,3,"no","up","Right",1,"FL","FS",20,"up",581,1,"Guest06"
