"trial_id","sx","sy","px","py","pz","duration","timestamp","trial_onset","label","label_onset","subject_nr.x","AOI_visited","subject_nr.y","fat_craving","sugar_craving","Block","practice","Arrow_Direction","Arrow_Position","Congruence","Left_Picture","Right_Picture","Pair_Number","response","response_time","accuracy","part_ID"
1,0.362641036510468,0.49379488825798,-66.6407699584961,139.997955322266,44.1179542541504,200,1723.008,699.008,"Pictures_Onset",682.01,"09","Salty",9,70,90,1,"no","up","Left",1,"FF","FL",1,"up",671,1,"Guest09"
1,0.573833346366882,0.512708306312561,33.0466651916504,135.226257324219,42.381664276123,116.007,1990.003,966.003,"Pictures_Onset",949.005,"09","Healthy",9,70,90,1,"no","up","Left",1,"FF","FL",1,"up",671,1,"Guest09"
1,0.575303018093109,0.503454506397247,33.698787689209,137.536682128906,43.2206077575684,167.002,2139.008,1115.008,"Pictures_Onset",1098.01,"09","Healthy",9,70,90,1,"no","up","Left",1,"FF","FL",1,"up",671,1,"Guest09"
1,0.623888909816742,0.497777760028839,56.5988845825195,138.939544677734,43.7328872680664,232.998,2538.01,1514.01,"Pictures_Onset",1497.012,"09","Healthy",9,70,90,1,"no","up","Left",1,"FF","FL",1,"up",671,1,"Guest09"
1,0.396916687488556,0.500791668891907,-50.5633392333984,138.199172973633,43.4637489318848,117.005,2838.003,1814.003,"Pictures_Onset",1797.005,"09","Salty",9,70,90,1,"no","up","Left",1,"FF","FL",1,"up",671,1,"Guest09"
2,0.326925873756409,0.490888923406601,-83.4411163330078,140.665939331055,44.3618507385254,131.994,1464.998,432,"Pictures_Onset",424,"09","Healthy",9,70,90,2,"no","up","Left",0,"FL","FF",1,"up",466,1,"Guest09"
2,0.609740793704987,0.514611065387726,49.9594421386719,134.745178222656,42.2068557739258,282.995,1697.997,664.999,"Pictures_Onset",656.999,"09","Salty",9,70,90,2,"no","up","Left",0,"FL","FF",1,"up",466,1,"Guest09"
2,0.643022239208221,0.489866673946381,65.7535552978516,140.93310546875,44.4562187194824,233.011,2030.989,997.991,"Pictures_Onset",989.991,"09","Salty",9,70,90,2,"no","up","Left",0,"FL","FF",1,"up",466,1,"Guest09"
2,0.381625026464462,0.492541700601578,-57.7566680908203,140.293746948242,44.2241668701172,115.994,2346.995,1313.997,"Pictures_Onset",1305.997,"09","Healthy",9,70,90,2,"no","up","Left",0,"FL","FF",1,"up",466,1,"Guest09"
2,0.381190538406372,0.501500010490417,-57.8759536743164,138.043807983398,43.4071426391602,216.998,2496,1463.002,"Pictures_Onset",1455.002,"09","Healthy",9,70,90,2,"no","up","Left",0,"FL","FF",1,"up",466,1,"Guest09"
3,0.349393904209137,0.500939428806305,-72.9412155151367,138.196960449219,43.4612159729004,164.992,1247.002,217.997,"Pictures_Onset",206.004,"09","Salty",9,70,90,3,"no","down","Right",0,"FF","FL",1,"down",746,1,"Guest09"
3,0.608946621417999,0.499359995126724,49.5527992248535,138.562271118164,43.5957336425781,399.002,1928,898.995,"Pictures_Onset",887.002,"09","Healthy",9,70,90,3,"no","down","Right",0,"FF","FL",1,"down",746,1,"Guest09"
3,0.380513906478882,0.509472250938416,-58.2879180908203,136.041809082031,42.6780548095703,184,2409.997,1380.992,"Pictures_Onset",1368.999,"09","Salty",9,70,90,3,"no","down","Right",0,"FF","FL",1,"down",746,1,"Guest09"
3,0.404568642377853,0.476647049188614,-46.87548828125,144.255279541016,45.6674499511719,266.995,2709.005,1680,"Pictures_Onset",1668.007,"09","Salty",9,70,90,3,"no","down","Right",0,"FF","FL",1,"down",746,1,"Guest09"
4,0.604060590267181,0.491848438978195,47.2863655090332,140.437881469727,44.2793922424316,167.002,2462.003,1430.003,"Pictures_Onset",1421.005,"09","Salty",9,70,90,4,"no","down","Right",1,"FL","FF",1,"down",861,1,"Guest09"
4,0.437666654586792,0.507416665554047,-31.3766651153564,136.547912597656,42.8633346557617,114.996,2728.998,1696.998,"Pictures_Onset",1688,"09","Healthy",9,70,90,4,"no","down","Right",1,"FL","FF",1,"down",861,1,"Guest09"
5,0.385703712701797,0.493444442749023,-55.8170356750488,140.04296875,44.1340751647949,133.005,1389.99,364.992,"Pictures_Onset",348.992,"09","Salty",9,70,90,2,"no","up","Left",1,"FF","FL",2,"up",491,1,"Guest09"
5,0.639894366264343,0.51130884885788,64.2272491455078,135.592346191406,42.5141525268555,665.996,1607.002,582.004,"Pictures_Onset",566.004,"09","Healthy",9,70,90,2,"no","up","Left",1,"FF","FL",2,"up",491,1,"Guest09"
5,0.378041714429855,0.496402740478516,-59.4795875549316,139.285537719727,43.8601379394531,182.988,2439.002,1414.004,"Pictures_Onset",1398.004,"09","Salty",9,70,90,2,"no","up","Left",1,"FF","FL",2,"up",491,1,"Guest09"
5,0.374454528093338,0.48848482966423,-61.0915184020996,141.301986694336,44.5921173095703,165.336333333334,2655.65566666667,1663.66866666667,"Pictures_Onset",1647.66866666667,"09","Salty",9,70,90,2,"no","up","Left",1,"FF","FL",2,"up",491,1,"Guest09"
6,0.333368480205536,0.487228095531464,-80.5047378540039,141.596313476562,44.6994743347168,299.993,1431.002,399.002,"Pictures_Onset",390.004,"09","Healthy",9,70,90,3,"no","up","Left",0,"FL","FF",2,"up",630,1,"Guest09"
6,0.595217406749725,0.496884107589722,43.1521759033203,139.181579589844,43.820140838623,365.005,1930.995,898.995,"Pictures_Onset",889.997,"09","Salty",9,70,90,3,"no","up","Left",0,"FL","FF",2,"up",630,1,"Guest09"
6,0.359100013971329,0.496233373880386,-68.3756713867188,139.347320556641,43.8819999694824,150.003,2379.994,1347.994,"Pictures_Onset",1338.996,"09","Healthy",9,70,90,3,"no","up","Left",0,"FL","FF",2,"up",630,1,"Guest09"
6,0.356397420167923,0.491769254207611,-69.6453857421875,140.47346496582,44.2906455993652,416.998,2561.997,1529.997,"Pictures_Onset",1520.999,"09","Healthy",9,70,90,3,"no","up","Left",0,"FL","FF",2,"up",630,1,"Guest09"
7,0.432461529970169,0.512538433074951,-33.7276916503906,135.293594360352,42.4053802490234,200.999,1478.003,448,"Pictures_Onset",437.005,"09","Salty",9,70,90,4,"no","down","Right",0,"FF","FL",2,"down",693,1,"Guest09"
7,0.364566653966904,0.509833335876465,-65.7529983520508,135.962493896484,42.6486587524414,316.992,1745.011,715.008,"Pictures_Onset",704.013,"09","Salty",9,70,90,4,"no","down","Right",0,"FF","FL",2,"down",693,1,"Guest09"
8,0.379923135042191,0.506820499897003,-58.5453834533691,136.7041015625,42.9199981689453,199.002,1280.998,249.996,"Pictures_Onset",240,"09","Healthy",9,70,90,1,"no","down","Right",1,"FL","FF",2,"down",820,1,"Guest09"
8,0.375083327293396,0.50002783536911,-60.8141670227051,138.418869018555,43.5436134338379,184.998,2161.997,1130.995,"Pictures_Onset",1120.999,"09","Healthy",9,70,90,1,"no","down","Right",1,"FL","FF",2,"down",820,1,"Guest09"
8,0.584526360034943,0.510228097438812,38.0466651916504,135.858932495117,42.6112327575684,299.008,2428.992,1397.99,"Pictures_Onset",1387.994,"09","Salty",9,70,90,1,"no","down","Right",1,"FL","FF",2,"down",820,1,"Guest09"
9,0.650727272033691,0.484696984291077,69.3412170410156,142.241195678711,44.9348487854004,165.99,1687.002,666.01,"Pictures_Onset",646.004,"09","Healthy",9,70,90,3,"no","up","Left",1,"FF","FL",3,"up",525,1,"Guest09"
9,0.602535665035248,0.488321453332901,46.5914306640625,141.330825805664,44.6030960083008,448.998,1903.002,882.01,"Pictures_Onset",862.004,"09","Healthy",9,70,90,3,"no","up","Left",1,"FF","FL",3,"up",525,1,"Guest09"
9,0.624622166156769,0.493044435977936,57.0504493713379,140.195343017578,44.1902198791504,232.998,2385.997,1365.005,"Pictures_Onset",1344.999,"09","Healthy",9,70,90,3,"no","up","Left",1,"FF","FL",3,"up",525,1,"Guest09"
9,0.388518452644348,0.47561115026474,-54.4394493103027,144.509094238281,45.7594451904297,284.006,2700.992,1680,"Pictures_Onset",1659.994,"09","Salty",9,70,90,3,"no","up","Left",1,"FF","FL",3,"up",525,1,"Guest09"
10,0.370333343744278,0.48090472817421,-63.0322608947754,143.181198120117,45.2777366638184,449.997,1360,330.995,"Pictures_Onset",319.002,"09","Healthy",9,70,90,4,"no","up","Left",0,"FL","FF",3,"up",643,1,"Guest09"
10,0.365374982357025,0.477208346128464,-65.4662475585938,144.111663818359,45.6141700744629,115.994,1844.006,815.001,"Pictures_Onset",803.008,"09","Healthy",9,70,90,4,"no","up","Left",0,"FL","FF",3,"up",643,1,"Guest09"
10,0.615977704524994,0.472444415092468,52.9519996643066,145.324661254883,46.0562171936035,234.009,2041.997,1012.992,"Pictures_Onset",1000.999,"09","Salty",9,70,90,4,"no","up","Left",0,"FL","FF",3,"up",643,1,"Guest09"
10,0.615333259105682,0.475851863622665,52.6507415771484,144.460372924805,45.7429656982422,132.992,2309.005,1280,"Pictures_Onset",1268.007,"09","Salty",9,70,90,4,"no","up","Left",0,"FL","FF",3,"up",643,1,"Guest09"
10,0.354640990495682,0.488615363836288,-70.4374389648438,141.220794677734,44.5633316040039,199.001,2527.002,1497.997,"Pictures_Onset",1486.004,"09","Healthy",9,70,90,4,"no","up","Left",0,"FL","FF",3,"up",643,1,"Guest09"
11,0.393022239208221,0.497288882732391,-52.4279937744141,139.108657836914,43.7962226867676,232.999,1673.011,649.011,"Pictures_Onset",632.013,"09","Salty",9,70,90,1,"no","down","Right",0,"FF","FL",3,"down",805,1,"Guest09"
11,0.619137287139893,0.504137277603149,54.460391998291,137.364334106445,43.160587310791,265.997,1990.003,966.003,"Pictures_Onset",949.005,"09","Healthy",9,70,90,1,"no","down","Right",0,"FF","FL",3,"down",805,1,"Guest09"
11,0.41223081946373,0.512282073497772,-43.2708930969238,135.344619750977,42.4243545532227,415.002,2339.008,1315.008,"Pictures_Onset",1298.01,"09","Salty",9,70,90,1,"no","down","Right",0,"FF","FL",3,"down",805,1,"Guest09"
12,0.340436846017838,0.484206914901733,-77.1567916870117,142.351028442383,44.9757461547852,465.997,1480.998,448.998,"Pictures_Onset",440,"09","Healthy",9,70,90,2,"no","down","Right",1,"FL","FF",3,"down",902,1,"Guest09"
12,0.641476213932037,0.510571420192719,65.0226135253906,135.760223388672,42.5776176452637,216.999,2030.003,998.003,"Pictures_Onset",989.005,"09","Salty",9,70,90,2,"no","down","Right",1,"FL","FF",3,"down",902,1,"Guest09"
12,0.606333315372467,0.511766731739044,48.4536666870117,135.469680786133,42.4693336486816,150.003,2296,1264,"Pictures_Onset",1255.002,"09","Salty",9,70,90,2,"no","down","Right",1,"FL","FF",3,"down",902,1,"Guest09"
12,0.391222178936005,0.493333369493484,-53.1517448425293,140.073516845703,44.1455497741699,332.992,2663.002,1631.002,"Pictures_Onset",1622.004,"09","Healthy",9,70,90,2,"no","down","Right",1,"FL","FF",3,"down",902,1,"Guest09"
13,0.405060589313507,0.491636365652084,-46.6387825012207,140.530303955078,44.3115158081055,166.988,1306.01,282.01,"Pictures_Onset",265.012,"09","Salty",9,70,90,4,"no","up","Left",1,"FF","FL",4,"up",743,1,"Guest09"
13,0.579800009727478,0.497155576944351,35.8120002746582,139.112228393555,43.7962188720703,232,1555.008,531.008,"Pictures_Onset",514.01,"09","Healthy",9,70,90,4,"no","up","Left",1,"FF","FL",4,"up",743,1,"Guest09"
13,0.614473760128021,0.493228048086166,52.2036819458008,140.072631835938,44.1445617675781,300.007,1822.003,798.003,"Pictures_Onset",781.005,"09","Healthy",9,70,90,4,"no","up","Left",1,"FF","FL",4,"up",743,1,"Guest09"
14,0.384978502988815,0.497032284736633,-56.1106491088867,139.128265380859,43.8006439208984,500.006,1705.997,681.997,"Pictures_Onset",664.999,"09","Healthy",9,70,90,1,"no","up","Left",0,"FL","FF",4,"up",2021,1,"Guest09"
14,0.345066636800766,0.49713334441185,-75.0080032348633,139.136657714844,43.804328918457,150.003,2255.002,1231.002,"Pictures_Onset",1214.004,"09","Healthy",9,70,90,1,"no","up","Left",0,"FL","FF",4,"up",2021,1,"Guest09"
14,0.577305614948273,0.501222193241119,34.658332824707,138.075271606445,43.4180564880371,183.002,2488,1464,"Pictures_Onset",1447.002,"09","Salty",9,70,90,1,"no","up","Left",0,"FL","FF",4,"up",2021,1,"Guest09"
15,0.369424253702164,0.47845458984375,-63.4863624572754,143.787582397461,45.4969711303711,167.002,1480,448,"Pictures_Onset",439.002,"09","Salty",9,70,90,2,"no","down","Right",0,"FF","FL",4,"down",764,1,"Guest09"
15,0.640916645526886,0.5109583735466,64.6762542724609,135.640838623047,42.5333366394043,115.993,1729.997,697.997,"Pictures_Onset",688.999,"09","Healthy",9,70,90,2,"no","down","Right",0,"FF","FL",4,"down",764,1,"Guest09"
15,0.388805538415909,0.51288890838623,-54.3713874816895,135.172775268555,42.361385345459,184,2044.992,1012.992,"Pictures_Onset",1003.994,"09","Salty",9,70,90,2,"no","down","Right",0,"FF","FL",4,"down",764,1,"Guest09"
15,0.639261841773987,0.499904721975327,63.9166679382324,138.444747924805,43.5511894226074,215.002,2578.995,1546.995,"Pictures_Onset",1537.997,"09","Healthy",9,70,90,2,"no","down","Right",0,"FF","FL",4,"down",764,1,"Guest09"
15,0.433999985456467,0.498952358961105,-33.0728569030762,138.617141723633,43.6161918640137,100.007,2877.99,1845.99,"Pictures_Onset",1836.992,"09","Salty",9,70,90,2,"no","down","Right",0,"FF","FL",4,"down",764,1,"Guest09"
16,0.382874995470047,0.480374991893768,-57.1366691589355,143.301055908203,45.3195838928223,249.011,1492.992,465.997,"Pictures_Onset",451.994,"09","Healthy",9,70,90,3,"no","down","Right",1,"FL","FF",4,"down",937,1,"Guest09"
16,0.625980377197266,0.507450938224792,57.6996116638184,136.534713745117,42.8584327697754,266.996,1824.998,798.003,"Pictures_Onset",784,"09","Salty",9,70,90,3,"no","down","Right",1,"FL","FF",4,"down",937,1,"Guest09"
16,0.352933317422867,0.504066646099091,-71.3042144775391,137.404235839844,43.1753349304199,233.996,2407.002,1380.007,"Pictures_Onset",1366.004,"09","Healthy",9,70,90,3,"no","down","Right",1,"FL","FF",4,"down",937,1,"Guest09"
16,0.341435879468918,0.488589733839035,-76.7379531860352,141.286682128906,44.5858955383301,200,2673.997,1647.002,"Pictures_Onset",1632.999,"09","Healthy",9,70,90,3,"no","down","Right",1,"FL","FF",4,"down",937,1,"Guest09"
17,0.585925877094269,0.488259315490723,38.6648101806641,141.348159790039,44.6111068725586,132.992,1376,349.005,"Pictures_Onset",335.002,"09","Healthy",9,70,90,1,"no","up","Left",1,"FF","FL",5,"up",650,1,"Guest09"
17,0.366697043180466,0.503621220588684,-64.822883605957,137.521667480469,43.2171173095703,350.003,1608,581.005,"Pictures_Onset",567.002,"09","Salty",9,70,90,1,"no","up","Left",1,"FF","FL",5,"up",650,1,"Guest09"
17,0.624249994754791,0.473520815372467,56.8263549804688,145.0576171875,45.9596900939941,516.007,2173.99,1146.995,"Pictures_Onset",1132.992,"09","Healthy",9,70,90,1,"no","up","Left",1,"FF","FL",5,"up",650,1,"Guest09"
17,0.4088094830513,0.501333296298981,-44.915714263916,138.091186523438,43.4240455627441,214.989,2774.003,1747.008,"Pictures_Onset",1733.005,"09","Salty",9,70,90,1,"no","up","Left",1,"FF","FL",5,"up",650,1,"Guest09"
18,0.378899991512299,0.498600006103516,-59.0299987792969,138.749328613281,43.6636657714844,150.003,1504,480.998,"Pictures_Onset",463.002,"09","Healthy",9,70,90,2,"no","up","Left",0,"FL","FF",5,"up",1741,1,"Guest09"
18,0.623629689216614,0.516851842403412,56.5396270751953,134.231109619141,42.0192604064941,132.992,1738.01,715.008,"Pictures_Onset",697.012,"09","Salty",9,70,90,2,"no","up","Left",0,"FL","FF",5,"up",1741,1,"Guest09"
18,0.376203626394272,0.518083333969116,-60.2723121643066,133.87353515625,41.8893585205078,583.001,1954.01,931.008,"Pictures_Onset",913.012,"09","Healthy",9,70,90,2,"no","up","Left",0,"FL","FF",5,"up",1741,1,"Guest09"
19,0.328750014305115,0.484111160039902,-82.7138900756836,142.375564575195,44.9819450378418,183.001,1471.002,448.999,"Pictures_Onset",430.004,"09","Salty",9,70,90,3,"no","down","Right",0,"FF","FL",5,"down",731,1,"Guest09"
19,0.615848481655121,0.50151515007019,52.863941192627,138.014709472656,43.3974266052246,349.005,1753.997,731.994,"Pictures_Onset",712.999,"09","Healthy",9,70,90,3,"no","down","Right",0,"FF","FL",5,"down",731,1,"Guest09"
19,0.365037053823471,0.512703657150269,-65.5696258544922,135.211853027344,42.3766670227051,132.006,2187.994,1165.991,"Pictures_Onset",1146.996,"09","Salty",9,70,90,3,"no","down","Right",0,"FF","FL",5,"down",731,1,"Guest09"
19,0.359066665172577,0.499499976634979,-68.3743362426758,138.512344360352,43.5783348083496,149.005,2369.997,1347.994,"Pictures_Onset",1328.999,"09","Salty",9,70,90,3,"no","down","Right",0,"FF","FL",5,"down",731,1,"Guest09"
19,0.351212114095688,0.462287902832031,-72.0901489257812,147.862442016602,46.9803009033203,167.002,2752,1729.997,"Pictures_Onset",1711.002,"09","Salty",9,70,90,3,"no","down","Right",0,"FF","FL",5,"down",731,1,"Guest09"
20,0.356627434492111,0.48270583152771,-69.504508972168,142.720001220703,45.1094131469727,266.996,2080.998,1048,"Pictures_Onset",1040,"09","Healthy",9,70,90,4,"no","down","Right",1,"FL","FF",5,"down",792,1,"Guest09"
20,0.573791682720184,0.496583342552185,32.9775009155273,139.233764648438,43.8400001525879,116.007,2413.99,1380.992,"Pictures_Onset",1372.992,"09","Salty",9,70,90,4,"no","down","Right",1,"FL","FF",5,"down",792,1,"Guest09"
20,0.409090906381607,0.493969649076462,-44.7533340454102,139.944534301758,44.0984878540039,167.002,2629.99,1596.992,"Pictures_Onset",1588.992,"09","Healthy",9,70,90,4,"no","down","Right",1,"FL","FF",5,"down",792,1,"Guest09"
21,0.385176450014114,0.471078425645828,-55.9903945922852,145.661758422852,46.1788215637207,264.999,1518.003,482.995,"Pictures_Onset",477.005,"09","Salty",9,70,90,2,"no","down","Left",1,"FF","FL",6,"down",973,1,"Guest09"
21,0.640755534172058,0.5025554895401,64.6206665039062,137.750671386719,43.2995567321777,232.998,1867.008,832,"Pictures_Onset",826.01,"09","Healthy",9,70,90,2,"no","down","Left",1,"FF","FL",6,"down",973,1,"Guest09"
21,0.605948686599731,0.498256355524063,48.1856346130371,138.878967285156,43.711540222168,199.002,2150.003,1114.995,"Pictures_Onset",1109.005,"09","Healthy",9,70,90,2,"no","down","Left",1,"FF","FL",6,"down",973,1,"Guest09"
21,0.603588879108429,0.490411102771759,47.0782241821289,140.816329956055,44.4164505004883,484.007,2382.003,1346.995,"Pictures_Onset",1341.005,"09","Healthy",9,70,90,2,"no","down","Left",1,"FF","FL",6,"down",973,1,"Guest09"
22,0.406160086393356,0.469413340091705,-46.1073341369629,146.047866821289,46.3201332092285,398.989,1544.998,515.008,"Pictures_Onset",504,"09","Healthy",9,70,90,3,"no","down","Left",0,"FL","FF",6,"down",766,1,"Guest09"
22,0.630100071430206,0.501166641712189,59.6370010375977,138.124664306641,43.4343299865723,150.003,2027.994,998.004,"Pictures_Onset",986.996,"09","Salty",9,70,90,3,"no","down","Left",0,"FL","FF",6,"down",766,1,"Guest09"
22,0.399301022291183,0.467612892389297,-49.3563385009766,146.506439208984,46.4867744445801,500.006,2476.992,1447.002,"Pictures_Onset",1435.994,"09","Healthy",9,70,90,3,"no","down","Left",0,"FL","FF",6,"down",766,1,"Guest09"
23,0.443595260381699,0.487904787063599,-28.4997615814209,141.44499206543,44.6454811096191,216,2414.003,1380.992,"Pictures_Onset",1373.005,"09","Salty",9,70,90,4,"no","up","Right",0,"FF","FL",6,"up",687,1,"Guest09"
24,0.447575747966766,0.491969704627991,-26.6087875366211,140.431213378906,44.2763633728027,167.002,1704.998,681.996,"Pictures_Onset",664,"09","Healthy",9,70,90,1,"no","up","Right",1,"FL","FF",6,"up",741,1,"Guest09"
24,0.373629629611969,0.480259269475937,-61.4251861572266,143.362976074219,45.342586517334,133.005,1938.995,915.993,"Pictures_Onset",897.997,"09","Healthy",9,70,90,1,"no","up","Right",1,"FL","FF",6,"up",741,1,"Guest09"
24,0.624161839485168,0.502876162528992,56.8191375732422,137.708557128906,43.284481048584,566.003,2154.995,1131.993,"Pictures_Onset",1113.997,"09","Salty",9,70,90,1,"no","up","Right",1,"FL","FF",6,"up",741,1,"Guest09"
24,0.369333356618881,0.480930596590042,-63.5394477844238,143.19514465332,45.2830543518066,184,2802.995,1779.993,"Pictures_Onset",1761.997,"09","Healthy",9,70,90,1,"no","up","Right",1,"FL","FF",6,"up",741,1,"Guest09"
25,0.362877756357193,0.484933286905289,-66.5443344116211,142.167877197266,44.9086647033691,481.011,1268.992,233.997,"Pictures_Onset",227.994,"09","Salty",9,70,90,3,"no","down","Left",1,"FF","FL",7,"down",635,1,"Guest09"
25,0.647866666316986,0.486133396625519,67.9806671142578,141.882659912109,44.802001953125,149.005,1833.997,799.002,"Pictures_Onset",792.999,"09","Healthy",9,70,90,3,"no","down","Left",1,"FF","FL",7,"down",635,1,"Guest09"
25,0.609121263027191,0.486060589551926,49.7506103515625,141.894546508789,44.8075752258301,165.005,2016.998,982.003,"Pictures_Onset",976,"09","Healthy",9,70,90,3,"no","down","Left",1,"FF","FL",7,"down",635,1,"Guest09"
25,0.609666645526886,0.493388891220093,49.9438896179199,140.046112060547,44.1355590820312,264.999,2216.998,1182.003,"Pictures_Onset",1176,"09","Healthy",9,70,90,3,"no","down","Left",1,"FF","FL",7,"down",635,1,"Guest09"
25,0.630466639995575,0.495666652917862,59.842887878418,139.522888183594,43.9451141357422,232.998,2515.994,1480.999,"Pictures_Onset",1474.996,"09","Healthy",9,70,90,3,"no","down","Left",1,"FF","FL",7,"down",635,1,"Guest09"
26,0.404749989509583,0.484055548906326,-46.7522239685059,142.439712524414,45.008056640625,183.002,1592.998,566.003,"Pictures_Onset",552,"09","Healthy",9,70,90,4,"no","down","Left",0,"FL","FF",7,"down",732,1,"Guest09"
26,0.591724634170532,0.494985580444336,41.5176849365234,139.675933837891,44.0010147094727,366.003,1858.995,832,"Pictures_Onset",817.997,"09","Salty",9,70,90,4,"no","down","Left",0,"FL","FF",7,"down",732,1,"Guest09"
26,0.387250006198883,0.505541682243347,-55.0979156494141,137.03791809082,43.0437469482422,116.992,2391.002,1364.007,"Pictures_Onset",1350.004,"09","Healthy",9,70,90,4,"no","down","Left",0,"FL","FF",7,"down",732,1,"Guest09"
26,0.385208338499069,0.497666656970978,-55.9870834350586,138.97541809082,43.7437515258789,117.005,2540.992,1513.997,"Pictures_Onset",1499.994,"09","Healthy",9,70,90,4,"no","down","Left",0,"FL","FF",7,"down",732,1,"Guest09"
26,0.56547224521637,0.500249981880188,29.1175003051758,138.33332824707,43.5122222900391,183.002,2740.992,1713.997,"Pictures_Onset",1699.994,"09","Salty",9,70,90,4,"no","down","Left",0,"FL","FF",7,"down",732,1,"Guest09"
27,0.367407411336899,0.474037051200867,-64.4977722167969,144.89778137207,45.9022216796875,131.993,1546.01,517.005,"Pictures_Onset",505.012,"09","Salty",9,70,90,1,"no","up","Right",0,"FF","FL",7,"up",668,1,"Guest09"
27,0.389844447374344,0.47966668009758,-53.8040008544922,143.513565063477,45.3966636657715,233.996,1711.002,681.997,"Pictures_Onset",670.004,"09","Salty",9,70,90,1,"no","up","Right",0,"FF","FL",7,"up",668,1,"Guest09"
27,0.573708355426788,0.51025003194809,32.8808326721191,135.89958190918,42.6275024414062,115.994,2028.006,999.001,"Pictures_Onset",987.008,"09","Healthy",9,70,90,1,"no","up","Right",0,"FF","FL",7,"up",668,1,"Guest09"
28,0.356166690587997,0.50336104631424,-69.6983261108398,137.569717407227,43.2330589294434,182.003,1876.992,848.998,"Pictures_Onset",835.994,"09","Healthy",9,70,90,2,"no","up","Right",1,"FL","FF",7,"up",706,1,"Guest09"
28,0.637611091136932,0.511666655540466,63.1377754211426,135.481109619141,42.4747200012207,182.988,2359.002,1331.008,"Pictures_Onset",1318.004,"09","Salty",9,70,90,2,"no","up","Right",1,"FL","FF",7,"up",706,1,"Guest09"
28,0.370507955551147,0.512936472892761,-62.9973030090332,135.189849853516,42.3669853210449,332.007,2642.995,1615.001,"Pictures_Onset",1601.997,"09","Healthy",9,70,90,2,"no","up","Right",1,"FL","FF",7,"up",706,1,"Guest09"
29,0.638538420200348,0.47089746594429,63.576416015625,145.701019287109,46.1935844421387,200.998,1460.992,432,"Pictures_Onset",419.994,"09","Healthy",9,70,90,4,"no","down","Left",1,"FF","FL",8,"down",797,1,"Guest09"
29,0.605729162693024,0.484624952077866,48.1004180908203,142.236679077148,44.9341621398926,249.996,1711.002,682.01,"Pictures_Onset",670.004,"09","Healthy",9,70,90,4,"no","down","Left",1,"FF","FL",8,"down",797,1,"Guest09"
29,0.388523817062378,0.491309493780136,-54.4999961853027,140.616180419922,44.3442878723145,216,2160.998,1132.006,"Pictures_Onset",1120,"09","Salty",9,70,90,4,"no","down","Left",1,"FF","FL",8,"down",797,1,"Guest09"
29,0.344711095094681,0.49377778172493,-75.225341796875,139.988677978516,44.1146659851074,232.999,2576.998,1548.006,"Pictures_Onset",1536,"09","Salty",9,70,90,4,"no","down","Left",1,"FF","FL",8,"down",797,1,"Guest09"
30,0.369428485631943,0.484238117933273,-63.5004806518555,142.346420288086,44.9726257324219,216,2186.995,1164.992,"Pictures_Onset",1145.997,"09","Healthy",9,70,90,1,"no","down","Left",0,"FL","FF",8,"down",898,1,"Guest09"
30,0.368749976158142,0.488583326339722,-63.8754119873047,141.275833129883,44.5833358764648,115.993,2703.002,1680.999,"Pictures_Onset",1662.004,"09","Healthy",9,70,90,1,"no","down","Left",0,"FL","FF",8,"down",898,1,"Guest09"
31,0.350628197193146,0.515371799468994,-72.3314056396484,134.572937011719,42.1444892883301,417.011,1415.987,381.99,"Pictures_Onset",374.989,"09","Salty",9,70,90,2,"no","up","Right",0,"FF","FL",8,"up",531,1,"Guest09"
31,0.634759187698364,0.490129619836807,61.8035202026367,140.861297607422,44.4311103820801,282.995,1915.994,881.997,"Pictures_Onset",874.996,"09","Healthy",9,70,90,2,"no","up","Right",0,"FF","FL",8,"up",531,1,"Guest09"
31,0.61097913980484,0.497833341360092,50.5954132080078,138.951461791992,43.7372932434082,250.01,2231.987,1197.99,"Pictures_Onset",1190.989,"09","Healthy",9,70,90,2,"no","up","Right",0,"FF","FL",8,"up",531,1,"Guest09"
31,0.37602773308754,0.494499951601028,-60.3183326721191,139.791687011719,44.0433349609375,181.991,2664.998,1631.001,"Pictures_Onset",1624,"09","Salty",9,70,90,2,"no","up","Right",0,"FF","FL",8,"up",531,1,"Guest09"
32,0.336742401123047,0.465196967124939,-78.9475784301758,147.139541625977,46.716968536377,167.001,1454.989,430.989,"Pictures_Onset",413.991,"09","Healthy",9,70,90,3,"no","up","Right",1,"FL","FF",8,"up",646,1,"Guest09"
32,0.574277758598328,0.483962953090668,33.2479629516602,142.44905090332,45.010555267334,281.997,1704.998,680.998,"Pictures_Onset",664,"09","Salty",9,70,90,3,"no","up","Right",1,"FL","FF",8,"up",646,1,"Guest09"
32,0.391678988933563,0.495765417814255,-52.9655570983887,139.465316772461,43.9244384765625,432,2203.994,1179.994,"Pictures_Onset",1162.996,"09","Healthy",9,70,90,3,"no","up","Right",1,"FL","FF",8,"up",646,1,"Guest09"
32,0.360036998987198,0.447037070989609,-67.8811111450195,151.659622192383,48.3625946044922,133.005,2852.992,1828.992,"Pictures_Onset",1811.994,"09","Healthy",9,70,90,3,"no","up","Right",1,"FL","FF",8,"up",646,1,"Guest09"
33,0.348846137523651,0.505333304405212,-73.1528167724609,137.076919555664,43.0553855895996,199.002,1520,498.995,"Pictures_Onset",479.002,"09","Salty",9,70,90,1,"no","down","Left",1,"FF","FL",9,"down",837,1,"Guest09"
33,0.58899998664856,0.499703735113144,40.1437034606934,138.486114501953,43.5685195922852,282.995,1803.008,782.003,"Pictures_Onset",762.01,"09","Healthy",9,70,90,1,"no","down","Left",1,"FF","FL",9,"down",837,1,"Guest09"
33,0.439030289649963,0.528818190097809,-30.6018180847168,131.248489379883,40.9336357116699,166.989,2168.013,1147.008,"Pictures_Onset",1127.015,"09","Salty",9,70,90,1,"no","down","Left",1,"FF","FL",9,"down",837,1,"Guest09"
34,0.402916669845581,0.518958330154419,-47.6179161071777,133.6875,41.8208351135254,117.004,1483.994,465.997,"Pictures_Onset",442.996,"09","Healthy",9,70,90,2,"no","down","Left",0,"FL","FF",9,"down",776,1,"Guest09"
34,0.405666649341583,0.509333372116089,-46.389045715332,136.0673828125,42.6864318847656,216.998,1633.997,616,"Pictures_Onset",592.999,"09","Healthy",9,70,90,2,"no","down","Left",0,"FL","FF",9,"down",776,1,"Guest09"
34,0.620015144348145,0.499393939971924,54.8499908447266,138.555770874023,43.5931816101074,349.99,1933.005,915.008,"Pictures_Onset",892.007,"09","Salty",9,70,90,2,"no","down","Left",0,"FL","FF",9,"down",776,1,"Guest09"
34,0.619090855121613,0.504787862300873,54.346363067627,137.249374389648,43.1181831359863,166.003,2315.994,1297.997,"Pictures_Onset",1274.996,"09","Salty",9,70,90,2,"no","down","Left",0,"FL","FF",9,"down",776,1,"Guest09"
34,0.386102616786957,0.497384667396545,-55.5897445678711,139.094375610352,43.7897415161133,199.002,2550.003,1532.006,"Pictures_Onset",1509.005,"09","Healthy",9,70,90,2,"no","down","Left",0,"FL","FF",9,"down",776,1,"Guest09"
34,0.384692311286926,0.493256419897079,-56.2211532592773,140.103973388672,44.1566619873047,200,2782.003,1764.006,"Pictures_Onset",1741.005,"09","Healthy",9,70,90,2,"no","down","Left",0,"FL","FF",9,"down",776,1,"Guest09"
35,0.343194395303726,0.468972206115723,-75.8380508422852,146.122787475586,46.3477783203125,183.001,1523.994,497.997,"Pictures_Onset",482.996,"09","Salty",9,70,90,3,"no","up","Right",0,"FF","FL",9,"up",620,1,"Guest09"
35,0.387987732887268,0.477839529514313,-54.7219696044922,143.938522338867,45.5520973205566,432,1756.992,730.995,"Pictures_Onset",715.994,"09","Salty",9,70,90,3,"no","up","Right",0,"FF","FL",9,"up",620,1,"Guest09"
35,0.355291664600372,0.479358285665512,-70.1014175415039,143.592330932617,45.4262504577637,315.993,2239.002,1213.005,"Pictures_Onset",1198.004,"09","Salty",9,70,90,3,"no","up","Right",0,"FF","FL",9,"up",620,1,"Guest09"
35,0.642916679382324,0.504833340644836,65.6488876342773,137.190841674805,43.0963897705078,183.987,2638.003,1612.006,"Pictures_Onset",1597.005,"09","Healthy",9,70,90,3,"no","up","Right",0,"FF","FL",9,"up",620,1,"Guest09"
36,0.393555551767349,0.500083327293396,-52.0833320617676,138.395553588867,43.5338897705078,183.001,1331.994,299.994,"Pictures_Onset",290.996,"09","Healthy",9,70,90,4,"no","up","Right",1,"FL","FF",9,"up",907,1,"Guest09"
36,0.625092029571533,0.506367862224579,57.2691917419434,136.824356079102,42.962532043457,465.997,1930.995,898.995,"Pictures_Onset",889.997,"09","Salty",9,70,90,4,"no","up","Right",1,"FL","FF",9,"up",907,1,"Guest09"
36,0.366229891777039,0.502689599990845,-64.9362106323242,137.74919128418,43.2993087768555,464.998,2480,1448,"Pictures_Onset",1439.002,"09","Healthy",9,70,90,4,"no","up","Right",1,"FL","FF",9,"up",907,1,"Guest09"
37,0.376410305500031,0.497666627168655,-60.0623092651367,138.973602294922,43.7456436157227,200,1332.992,298.995,"Pictures_Onset",291.994,"09","Salty",9,70,90,2,"no","down","Left",1,"FF","FL",10,"down",829,1,"Guest09"
37,0.561547577381134,0.49961906671524,27.2461891174316,138.537872314453,43.5847587585449,216.013,1598.989,564.992,"Pictures_Onset",557.991,"09","Healthy",9,70,90,2,"no","down","Left",1,"FF","FL",10,"down",829,1,"Guest09"
37,0.392588883638382,0.503733336925507,-52.5214424133301,137.483795166016,43.2038917541504,483.994,2048,1014.003,"Pictures_Onset",1007.002,"09","Salty",9,70,90,2,"no","down","Left",1,"FF","FL",10,"down",829,1,"Guest09"
38,0.358916670084,0.50641667842865,-68.4233322143555,136.824584960938,42.962085723877,116.006,1276.992,249.997,"Pictures_Onset",235.994,"09","Healthy",9,70,90,3,"no","down","Left",0,"FL","FF",10,"down",787,1,"Guest09"
38,0.357242405414581,0.470939368009567,-69.2049942016602,145.684219360352,46.1878776550293,349.004,1643.994,616.999,"Pictures_Onset",602.996,"09","Healthy",9,70,90,3,"no","down","Left",0,"FL","FF",10,"down",787,1,"Guest09"
38,0.61429625749588,0.485148102045059,52.168327331543,142.134460449219,44.8953704833984,284.007,2074.995,1048,"Pictures_Onset",1033.997,"09","Salty",9,70,90,3,"no","down","Left",0,"FL","FF",10,"down",787,1,"Guest09"
38,0.615000009536743,0.471512794494629,52.5364151000977,145.549743652344,46.1399993896484,200,2392,1365.005,"Pictures_Onset",1351.002,"09","Salty",9,70,90,3,"no","down","Left",0,"FL","FF",10,"down",787,1,"Guest09"
38,0.357844471931458,0.490755558013916,-68.9346694946289,140.705337524414,44.3771171569824,232.998,2691.994,1664.999,"Pictures_Onset",1650.996,"09","Healthy",9,70,90,3,"no","down","Left",0,"FL","FF",10,"down",787,1,"Guest09"
39,0.392666667699814,0.482952386140823,-52.4846000671387,142.685409545898,45.0976257324219,332.006,1677.005,649.997,"Pictures_Onset",636.007,"09","Salty",9,70,90,4,"no","up","Right",0,"FF","FL",10,"up",774,1,"Guest09"
39,0.395215630531311,0.49721571803093,-51.2884254455566,139.107849121094,43.7950973510742,265.996,2042.01,1015.002,"Pictures_Onset",1001.012,"09","Salty",9,70,90,4,"no","up","Right",0,"FF","FL",10,"up",774,1,"Guest09"
39,0.434583336114883,0.503388822078705,-32.7122230529785,137.588897705078,43.2413902282715,184,2641.011,1614.003,"Pictures_Onset",1600.013,"09","Salty",9,70,90,4,"no","up","Right",0,"FF","FL",10,"up",774,1,"Guest09"
40,0.628265142440796,0.512174308300018,58.7831802368164,135.360397338867,42.4308319091797,350.003,2175.002,1147.008,"Pictures_Onset",1134.004,"09","Salty",9,70,90,1,"no","up","Right",1,"FL","FF",10,"up",684,1,"Guest09"
40,0.370757550001144,0.511393904685974,-62.9081802368164,135.61393737793,42.524242401123,167.002,2608,1580.006,"Pictures_Onset",1567.002,"09","Healthy",9,70,90,1,"no","up","Right",1,"FL","FF",10,"up",684,1,"Guest09"
40,0.431296318769455,0.500074088573456,-34.2496299743652,138.384826660156,43.5307426452637,132.007,2824.998,1797.004,"Pictures_Onset",1784,"09","Healthy",9,70,90,1,"no","up","Right",1,"FL","FF",10,"up",684,1,"Guest09"
41,0.367583334445953,0.49362501502037,-64.3895797729492,140.020004272461,44.125,117.004,1251.994,216.999,"Pictures_Onset",210.996,"09","Sugary",9,70,90,3,"no","up","Left",1,"FS","FL",11,"up",786,1,"Guest09"
41,0.605014562606812,0.483478248119354,47.7597122192383,142.543182373047,45.0431823730469,365.005,1584.998,550.003,"Pictures_Onset",544,"09","Healthy",9,70,90,3,"no","up","Left",1,"FS","FL",11,"up",786,1,"Guest09"
41,0.376366674900055,0.480016708374023,-60.1756706237793,143.420318603516,45.3631629943848,317.005,2032.998,998.003,"Pictures_Onset",992,"09","Sugary",9,70,90,3,"no","up","Left",1,"FS","FL",11,"up",786,1,"Guest09"
41,0.326366662979126,0.470466673374176,-83.8703384399414,145.757354736328,46.2143325805664,149.99,2400,1365.005,"Pictures_Onset",1359.002,"09","Sugary",9,70,90,3,"no","up","Left",1,"FS","FL",11,"up",786,1,"Guest09"
41,0.62714809179306,0.499407410621643,58.2529640197754,138.576293945312,43.5992622375488,135.002,2632,1597.005,"Pictures_Onset",1591.002,"09","Healthy",9,70,90,3,"no","up","Left",1,"FS","FL",11,"up",786,1,"Guest09"
42,0.429230809211731,0.499846160411835,-35.2633361816406,138.418716430664,43.5438461303711,200,1317.99,298.995,"Pictures_Onset",276.992,"09","Healthy",9,70,90,4,"no","up","Left",0,"FL","FS",11,"up",671,1,"Guest09"
42,0.644814848899841,0.499777793884277,66.4859313964844,138.447418212891,43.5533294677734,132.992,1584.998,566.003,"Pictures_Onset",544,"09","Sugary",9,70,90,4,"no","up","Left",0,"FL","FS",11,"up",671,1,"Guest09"
42,0.607823550701141,0.491176545619965,49.0539245605469,140.635299682617,44.3507843017578,266.996,1800.998,782.003,"Pictures_Onset",760,"09","Sugary",9,70,90,4,"no","up","Left",0,"FL","FS",11,"up",671,1,"Guest09"
42,0.606074035167694,0.482259273529053,48.2655563354492,142.828887939453,45.1470413208008,134.003,2100.992,1081.997,"Pictures_Onset",1059.994,"09","Sugary",9,70,90,4,"no","up","Left",0,"FL","FS",11,"up",671,1,"Guest09"
42,0.393855094909668,0.500869572162628,-51.9621734619141,138.176223754883,43.4558029174805,367.002,2316.992,1297.997,"Pictures_Onset",1275.994,"09","Healthy",9,70,90,4,"no","up","Left",0,"FL","FS",11,"up",671,1,"Guest09"
43,0.605794847011566,0.521666586399078,48.1499977111816,132.990753173828,41.5671806335449,200,2170.995,1147.993,"Pictures_Onset",1129.997,"09","Healthy",9,70,90,1,"no","down","Right",0,"FS","FL",11,"down",914,1,"Guest09"
43,0.606033384799957,0.519833385944366,48.2433319091797,133.431991577148,41.727668762207,150.003,2403.994,1380.992,"Pictures_Onset",1362.996,"09","Healthy",9,70,90,1,"no","down","Right",0,"FS","FL",11,"down",914,1,"Guest09"
44,0.605788946151733,0.494755566120148,48.1380004882812,139.739990234375,44.024341583252,481.997,1304,281.997,"Pictures_Onset",263.002,"09","Sugary",9,70,90,2,"no","down","Right",1,"FL","FS",11,"down",785,1,"Guest09"
44,0.369253307580948,0.501733303070068,-63.6070671081543,137.969329833984,43.3791999816895,399.001,1871.002,848.999,"Pictures_Onset",830.004,"09","Healthy",9,70,90,2,"no","down","Right",1,"FL","FS",11,"down",785,1,"Guest09"
44,0.406522572040558,0.50436943769455,-45.9909019470215,137.327285766602,43.146842956543,599.002,2320,1297.997,"Pictures_Onset",1279.002,"09","Healthy",9,70,90,2,"no","down","Right",1,"FL","FS",11,"down",785,1,"Guest09"
45,0.388111114501953,0.486925929784775,-54.6425933837891,141.653335571289,44.7214813232422,132.992,1556.006,532.006,"Pictures_Onset",515.008,"09","Sugary",9,70,90,4,"no","up","Left",1,"FS","FL",12,"up",629,1,"Guest09"
45,0.595600008964539,0.487633317708969,43.2720031738281,141.502670288086,44.6656684875488,149.991,1956.006,932.006,"Pictures_Onset",915.008,"09","Healthy",9,70,90,4,"no","up","Left",1,"FS","FL",12,"up",629,1,"Guest09"
45,0.376700013875961,0.519533336162567,-60.001335144043,133.530685424805,41.7646675109863,149.005,2256,1232,"Pictures_Onset",1215.002,"09","Sugary",9,70,90,4,"no","up","Left",1,"FS","FL",12,"up",629,1,"Guest09"
45,0.361636340618134,0.471060574054718,-67.1566696166992,145.609085083008,46.1606101989746,166.003,2455.002,1431.002,"Pictures_Onset",1414.004,"09","Sugary",9,70,90,4,"no","up","Left",1,"FS","FL",12,"up",629,1,"Guest09"
46,0.405039280653,0.512039184570312,-46.6139259338379,135.402938842773,42.4464683532715,266.009,1883.994,865.997,"Pictures_Onset",842.996,"09","Healthy",9,70,90,1,"no","up","Left",0,"FL","FS",12,"up",627,1,"Guest09"
46,0.604573309421539,0.48063999414444,47.5532035827637,143.248809814453,45.3003959655762,400,2582.003,1564.006,"Pictures_Onset",1541.005,"09","Sugary",9,70,90,1,"no","up","Left",0,"FL","FS",12,"up",627,1,"Guest09"
47,0.350384593009949,0.498153835535049,-72.4484558105469,138.896667480469,43.7176933288574,200,1501.99,482.995,"Pictures_Onset",460.992,"09","Sugary",9,70,90,2,"no","down","Right",0,"FS","FL",12,"down",829,1,"Guest09"
47,0.37227275967598,0.479575723409653,-62.1078834533691,143.553939819336,45.4133338928223,168,1733.99,714.995,"Pictures_Onset",692.992,"09","Sugary",9,70,90,2,"no","down","Right",0,"FS","FL",12,"down",829,1,"Guest09"
47,0.634215831756592,0.501921474933624,61.5429344177246,137.9482421875,43.3717613220215,266.995,1984,965.005,"Pictures_Onset",943.002,"09","Healthy",9,70,90,2,"no","down","Right",0,"FS","FL",12,"down",829,1,"Guest09"
47,0.597333371639252,0.513833343982697,44.1041679382324,134.961654663086,42.2838897705078,184,2316.992,1297.997,"Pictures_Onset",1275.994,"09","Healthy",9,70,90,2,"no","down","Right",0,"FS","FL",12,"down",829,1,"Guest09"
47,0.364897429943085,0.504076898097992,-65.6202545166016,137.388458251953,43.1671829223633,200,2582.989,1563.994,"Pictures_Onset",1541.991,"09","Sugary",9,70,90,2,"no","down","Right",0,"FS","FL",12,"down",829,1,"Guest09"
47,0.597750008106232,0.510916709899902,44.2787475585938,135.671249389648,42.5433311462402,116.992,2865.997,1847.002,"Pictures_Onset",1824.999,"09","Healthy",9,70,90,2,"no","down","Right",0,"FS","FL",12,"down",829,1,"Guest09"
48,0.612666666507721,0.48054763674736,51.3330955505371,143.295715332031,45.3178634643555,216,1348.992,316.992,"Pictures_Onset",307.994,"09","Sugary",9,70,90,3,"no","down","Right",1,"FL","FS",12,"down",821,1,"Guest09"
48,0.626000046730042,0.464374989271164,57.7074966430664,147.377502441406,46.8066635131836,113.997,1600,568,"Pictures_Onset",559.002,"09","Sugary",9,70,90,3,"no","down","Right",1,"FL","FS",12,"down",821,1,"Guest09"
48,0.37461906671524,0.501023828983307,-61.0245246887207,138.162384033203,43.4514274597168,216,1848,816,"Pictures_Onset",807.002,"09","Healthy",9,70,90,3,"no","down","Right",1,"FL","FS",12,"down",821,1,"Guest09"
48,0.430566698312759,0.522199988365173,-34.6159973144531,132.865997314453,41.5236663818359,150.003,2113.997,1081.997,"Pictures_Onset",1072.999,"09","Healthy",9,70,90,3,"no","down","Right",1,"FL","FS",12,"down",821,1,"Guest09"
48,0.416924953460693,0.526574969291687,-41.0315895080566,131.756912231445,41.1179122924805,315.993,2297.997,1265.997,"Pictures_Onset",1256.999,"09","Healthy",9,70,90,3,"no","down","Right",1,"FL","FS",12,"down",821,1,"Guest09"
48,0.373261898756027,0.486238092184067,-61.7142868041992,141.869033813477,44.7969055175781,216.998,2663.002,1631.002,"Pictures_Onset",1622.004,"09","Healthy",9,70,90,3,"no","down","Right",1,"FL","FS",12,"down",821,1,"Guest09"
49,0.361470580101013,0.505705833435059,-67.2537231445312,136.977447509766,43.0176467895508,266.01,1786.995,765.99,"Pictures_Onset",745.997,"09","Sugary",9,70,90,1,"no","up","Left",1,"FS","FL",13,"up",637,1,"Guest09"
49,0.389937460422516,0.488333314657211,-53.7716636657715,141.32666015625,44.6022872924805,249.997,2102.003,1080.998,"Pictures_Onset",1061.005,"09","Sugary",9,70,90,1,"no","up","Left",1,"FS","FL",13,"up",637,1,"Guest09"
49,0.641759157180786,0.504592657089233,65.1088943481445,137.255386352539,43.1199989318848,282.009,2435.994,1414.989,"Pictures_Onset",1394.996,"09","Healthy",9,70,90,1,"no","up","Left",1,"FS","FL",13,"up",637,1,"Guest09"
49,0.584785759449005,0.499547630548477,38.1866645812988,138.534042358398,43.5849952697754,216.998,2768,1746.995,"Pictures_Onset",1727.002,"09","Healthy",9,70,90,1,"no","up","Left",1,"FS","FL",13,"up",637,1,"Guest09"
50,0.627045452594757,0.489651560783386,58.1493911743164,141.00439453125,44.4840965270996,349.99,1247.002,215.002,"Pictures_Onset",206.004,"09","Sugary",9,70,90,2,"no","up","Left",0,"FL","FS",13,"up",658,1,"Guest09"
50,0.388682544231415,0.493730127811432,-54.3788871765137,139.975555419922,44.109676361084,332.992,1664,632,"Pictures_Onset",623.002,"09","Healthy",9,70,90,2,"no","up","Left",0,"FL","FS",13,"up",658,1,"Guest09"
50,0.389111071825027,0.503749966621399,-54.1219444274902,137.461929321289,43.1952781677246,183.002,2030.003,998.003,"Pictures_Onset",989.005,"09","Healthy",9,70,90,2,"no","up","Left",0,"FL","FS",13,"up",658,1,"Guest09"
50,0.629047572612762,0.491119056940079,59.0585670471191,140.620941162109,44.3457145690918,217.997,2296,1264,"Pictures_Onset",1255.002,"09","Sugary",9,70,90,2,"no","up","Left",0,"FL","FS",13,"up",658,1,"Guest09"
50,0.42359647154808,0.480561405420303,-37.8971862792969,143.267196655273,45.3070182800293,299.008,2595.994,1563.994,"Pictures_Onset",1554.996,"09","Healthy",9,70,90,2,"no","up","Left",0,"FL","FS",13,"up",658,1,"Guest09"
51,0.350979179143906,0.489249974489212,-72.1833419799805,141.112091064453,44.5224952697754,248.998,1273.997,249.997,"Pictures_Onset",232.999,"09","Sugary",9,70,90,3,"no","down","Right",0,"FS","FL",13,"down",824,1,"Guest09"
51,0.426370412111282,0.485222220420837,-36.6296272277832,142.150741577148,44.9000015258789,132.992,1573.005,549.005,"Pictures_Onset",532.007,"09","Sugary",9,70,90,3,"no","down","Right",0,"FS","FL",13,"down",824,1,"Guest09"
51,0.640177726745605,0.501222193241119,64.3277740478516,138.079330444336,43.4204444885254,232.998,1773.005,749.005,"Pictures_Onset",732.007,"09","Healthy",9,70,90,3,"no","down","Right",0,"FS","FL",13,"down",824,1,"Guest09"
51,0.601458370685577,0.492624998092651,46.0395851135254,140.29167175293,44.2258338928223,115.994,2040,1016,"Pictures_Onset",999.002,"09","Healthy",9,70,90,3,"no","down","Right",0,"FS","FL",13,"down",824,1,"Guest09"
51,0.355038493871689,0.4487564265728,-70.2962799072266,151.226791381836,48.2039756774902,200,2389.005,1365.005,"Pictures_Onset",1348.007,"09","Sugary",9,70,90,3,"no","down","Right",0,"FS","FL",13,"down",824,1,"Guest09"
52,0.37443333864212,0.528850018978119,-61.1086654663086,131.212158203125,40.9210052490234,150.004,1456.998,432,"Pictures_Onset",416,"09","Healthy",9,70,90,4,"no","down","Right",1,"FL","FS",13,"down",735,1,"Guest09"
52,0.555777728557587,0.517977833747864,24.5106620788574,133.917785644531,41.9048919677734,233.011,1690.995,665.997,"Pictures_Onset",649.997,"09","Sugary",9,70,90,4,"no","down","Right",1,"FL","FS",13,"down",735,1,"Guest09"
52,0.612479209899902,0.514708340167999,51.2975006103516,134.726043701172,42.1989555358887,250.995,1973.005,948.007,"Pictures_Onset",932.007,"09","Sugary",9,70,90,4,"no","down","Right",1,"FL","FS",13,"down",735,1,"Guest09"
52,0.370666712522507,0.529444456100464,-62.8808288574219,131.01139831543,40.8463859558105,184,2305.997,1280.999,"Pictures_Onset",1264.999,"09","Healthy",9,70,90,4,"no","down","Right",1,"FL","FS",13,"down",735,1,"Guest09"
53,0.396314829587936,0.487629681825638,-50.739631652832,141.515930175781,44.6709251403809,281.996,1483.994,448.999,"Pictures_Onset",442.996,"09","Sugary",9,70,90,2,"no","up","Left",1,"FS","FL",14,"up",492,1,"Guest09"
53,0.412037014961243,0.51877772808075,-43.4211120605469,133.750747680664,41.8455543518066,131.994,1832.998,798.003,"Pictures_Onset",792,"09","Sugary",9,70,90,2,"no","up","Left",1,"FS","FL",14,"up",492,1,"Guest09"
53,0.423819422721863,0.511263906955719,-37.8276405334473,135.598480224609,42.5162506103516,383.002,2181.99,1146.995,"Pictures_Onset",1140.992,"09","Sugary",9,70,90,2,"no","up","Left",1,"FS","FL",14,"up",492,1,"Guest09"
54,0.369592577219009,0.478777766227722,-63.3674049377441,143.665176391602,45.4525909423828,134.003,1257.997,232,"Pictures_Onset",216.999,"09","Healthy",9,70,90,3,"no","up","Left",0,"FL","FS",14,"up",485,1,"Guest09"
54,0.627127468585968,0.497823536396027,58.2120628356934,138.966186523438,43.743034362793,548.992,1840,814.003,"Pictures_Onset",799.002,"09","Sugary",9,70,90,3,"no","up","Left",0,"FL","FS",14,"up",485,1,"Guest09"
54,0.354409068822861,0.487484842538834,-70.5495376586914,141.543197631836,44.6815147399902,166.003,2622.989,1596.992,"Pictures_Onset",1581.991,"09","Healthy",9,70,90,3,"no","up","Left",0,"FL","FS",14,"up",485,1,"Guest09"
54,0.385600000619888,0.486600011587143,-55.9019966125488,141.787994384766,44.7686653137207,150.003,2822.989,1796.992,"Pictures_Onset",1781.991,"09","Healthy",9,70,90,3,"no","up","Left",0,"FL","FS",14,"up",485,1,"Guest09"
55,0.555166661739349,0.479472190141678,24.2736110687256,143.561935424805,45.4158325195312,182.989,1273.011,250.009,"Pictures_Onset",232.013,"09","Healthy",9,70,90,4,"no","down","Right",0,"FS","FL",14,"down",750,1,"Guest09"
55,0.408740729093552,0.479592591524124,-44.9007415771484,143.492599487305,45.3903656005859,132.992,1522.01,499.008,"Pictures_Onset",481.012,"09","Sugary",9,70,90,4,"no","down","Right",0,"FS","FL",14,"down",750,1,"Guest09"
55,0.629166662693024,0.47708335518837,59.1783294677734,144.169998168945,45.6372909545898,248.998,1739.008,716.006,"Pictures_Onset",698.01,"09","Healthy",9,70,90,4,"no","down","Right",0,"FS","FL",14,"down",750,1,"Guest09"
55,0.368307709693909,0.478179484605789,-64.0287170410156,143.903060913086,45.5371780395508,200,2071.002,1048,"Pictures_Onset",1030.004,"09","Sugary",9,70,90,4,"no","down","Right",0,"FS","FL",14,"down",750,1,"Guest09"
55,0.364376783370972,0.462086915969849,-65.8605804443359,147.877395629883,46.985652923584,367.002,2304,1280.998,"Pictures_Onset",1263.002,"09","Sugary",9,70,90,4,"no","down","Right",0,"FS","FL",14,"down",750,1,"Guest09"
56,0.353133320808411,0.469155609607697,-71.1495590209961,146.107131958008,46.3411102294922,231.002,1492.992,466.995,"Pictures_Onset",451.994,"09","Healthy",9,70,90,1,"no","down","Right",1,"FL","FS",14,"down",844,1,"Guest09"
56,0.573466658592224,0.502333283424377,32.9629974365234,137.787322998047,43.3129997253418,148.992,1808,782.003,"Pictures_Onset",767.002,"09","Sugary",9,70,90,1,"no","down","Right",1,"FL","FS",14,"down",844,1,"Guest09"
56,0.633373379707336,0.51281327009201,61.1693267822266,135.189727783203,42.3671989440918,398.004,2024.998,999.001,"Pictures_Onset",984,"09","Sugary",9,70,90,1,"no","down","Right",1,"FL","FS",14,"down",844,1,"Guest09"
56,0.631826043128967,0.521971046924591,60.4404296875,132.912490844727,41.539421081543,366.004,2456.998,1431.001,"Pictures_Onset",1416,"09","Sugary",9,70,90,1,"no","down","Right",1,"FL","FS",14,"down",844,1,"Guest09"
57,0.368769228458405,0.502538502216339,-63.8143539428711,137.776153564453,43.3092308044434,199.001,1283.994,248.999,"Pictures_Onset",242.996,"09","Sugary",9,70,90,3,"no","up","Left",1,"FS","FL",15,"up",561,1,"Guest09"
57,0.368222206830978,0.489370405673981,-64.1207427978516,141.085189819336,44.5137023925781,132.007,1517.99,482.995,"Pictures_Onset",476.992,"09","Sugary",9,70,90,3,"no","up","Left",1,"FS","FL",15,"up",561,1,"Guest09"
57,0.638866662979126,0.492366641759872,63.7796630859375,140.317672729492,44.2346725463867,149.005,1732.992,697.997,"Pictures_Onset",691.994,"09","Healthy",9,70,90,3,"no","up","Left",1,"FS","FL",15,"up",561,1,"Guest09"
57,0.608700096607208,0.487533330917358,49.4660034179688,141.513336181641,44.6703338623047,150.003,1932.992,897.997,"Pictures_Onset",891.994,"09","Healthy",9,70,90,3,"no","up","Left",1,"FS","FL",15,"up",561,1,"Guest09"
57,0.604190528392792,0.501047611236572,47.446907043457,138.129760742188,43.4383354187012,216,2281.997,1247.002,"Pictures_Onset",1240.999,"09","Healthy",9,70,90,3,"no","up","Left",1,"FS","FL",15,"up",561,1,"Guest09"
57,0.360512852668762,0.491051256656647,-67.6925582885742,140.625625610352,44.3459014892578,199.002,2581.99,1546.995,"Pictures_Onset",1540.992,"09","Sugary",9,70,90,3,"no","up","Left",1,"FS","FL",15,"up",561,1,"Guest09"
57,0.400933355093002,0.470466673374176,-48.5983352661133,145.81298828125,46.2343368530273,148.992,2832,1797.005,"Pictures_Onset",1791.002,"09","Sugary",9,70,90,3,"no","up","Left",1,"FS","FL",15,"up",561,1,"Guest09"
58,0.363527774810791,0.497083336114883,-66.2427825927734,139.129440307617,43.801944732666,184,1314.995,282.995,"Pictures_Onset",273.997,"09","Healthy",9,70,90,4,"no","up","Left",0,"FL","FS",15,"up",839,1,"Guest09"
58,0.565833330154419,0.489148139953613,29.2594432830811,141.140197753906,44.5340728759766,283.008,1580.992,548.992,"Pictures_Onset",539.994,"09","Sugary",9,70,90,4,"no","up","Left",0,"FL","FS",15,"up",839,1,"Guest09"
58,0.62071019411087,0.484231919050217,55.1553649902344,142.336822509766,44.9684066772461,366.003,1913.997,881.997,"Pictures_Onset",872.999,"09","Sugary",9,70,90,4,"no","up","Left",0,"FL","FS",15,"up",839,1,"Guest09"
58,0.381405800580978,0.487811654806137,-57.7889823913574,141.470153808594,44.6539154052734,366.003,2462.989,1430.989,"Pictures_Onset",1421.991,"09","Healthy",9,70,90,4,"no","up","Left",0,"FL","FS",15,"up",839,1,"Guest09"
59,0.613719284534454,0.481070160865784,51.8598175048828,143.122100830078,45.2545623779297,300.006,1596.992,563.994,"Pictures_Onset",555.994,"09","Healthy",9,70,90,1,"no","down","Right",0,"FS","FL",15,"down",755,1,"Guest09"
59,0.610688865184784,0.492777824401855,50.4571151733398,140.214431762695,44.1973342895508,232,1930.995,897.997,"Pictures_Onset",889.997,"09","Healthy",9,70,90,1,"no","down","Right",0,"FS","FL",15,"down",755,1,"Guest09"
59,0.376447916030884,0.508520901203156,-60.1582298278809,136.300628662109,42.7722854614258,516.007,2362.995,1329.997,"Pictures_Onset",1321.997,"09","Sugary",9,70,90,1,"no","down","Right",0,"FS","FL",15,"down",755,1,"Guest09"
60,0.372688382863998,0.502601444721222,-61.9301528930664,137.757690429688,43.302173614502,367.002,1308.992,282.995,"Pictures_Onset",267.994,"09","Healthy",9,70,90,2,"no","down","Right",1,"FL","FS",15,"down",818,1,"Guest09"
60,0.356358975172043,0.49787175655365,-69.6169204711914,138.942565917969,43.7346153259277,200,1707.994,681.997,"Pictures_Onset",666.996,"09","Healthy",9,70,90,2,"no","down","Right",1,"FL","FS",15,"down",818,1,"Guest09"
60,0.619255423545837,0.490833312273026,54.4678344726562,140.702987670898,44.3745040893555,982.988,1991.002,965.005,"Pictures_Onset",950.004,"09","Sugary",9,70,90,2,"no","down","Right",1,"FL","FS",15,"down",818,1,"Guest09"
62,0.383857101202011,0.499214321374893,-56.6730918884277,138.605712890625,43.6111869812012,215.001,1719.002,682.996,"Pictures_Onset",678.004,"09","Healthy",9,70,90,1,"no","down","Left",0,"FL","FS",16,"down",807,1,"Guest09"
62,0.637708306312561,0.498395770788193,63.1800003051758,138.818328857422,43.6885375976562,248.998,2018.01,982.004,"Pictures_Onset",977.012,"09","Sugary",9,70,90,1,"no","down","Left",0,"FL","FS",16,"down",807,1,"Guest09"
62,0.637555658817291,0.505580246448517,63.1016082763672,137.006530761719,43.0286445617676,432,2300.006,1264,"Pictures_Onset",1259.008,"09","Sugary",9,70,90,1,"no","down","Left",0,"FL","FS",16,"down",807,1,"Guest09"
62,0.447541683912277,0.50216668844223,-26.6220836639404,137.876235961914,43.3433303833008,116.007,2816.998,1780.992,"Pictures_Onset",1776,"09","Healthy",9,70,90,1,"no","down","Left",0,"FL","FS",16,"down",807,1,"Guest09"
63,0.384833306074142,0.512583315372467,-56.1823577880859,135.28596496582,42.4030609130859,380.992,1289.997,266.995,"Pictures_Onset",248.999,"09","Sugary",9,70,90,2,"no","up","Right",0,"FS","FL",16,"up",564,1,"Guest09"
63,0.622555553913116,0.513481438159943,56.0222244262695,135.056838989258,42.3192596435547,282.995,1871.002,848,"Pictures_Onset",830.004,"09","Healthy",9,70,90,2,"no","up","Right",0,"FS","FL",16,"up",564,1,"Guest09"
63,0.598019599914551,0.490843087434769,44.4294128417969,140.696105957031,44.3721580505371,265.996,2187.994,1164.992,"Pictures_Onset",1146.996,"09","Healthy",9,70,90,2,"no","up","Right",0,"FS","FL",16,"up",564,1,"Guest09"
63,0.362486124038696,0.501180589199066,-66.7427749633789,138.09944152832,43.4266662597656,182.004,2536.998,1513.996,"Pictures_Onset",1496,"09","Sugary",9,70,90,2,"no","up","Right",0,"FS","FL",16,"up",564,1,"Guest09"
63,0.408749997615814,0.498761862516403,-44.9601211547852,138.717376708984,43.6504783630371,217.997,2768.998,1745.996,"Pictures_Onset",1728,"09","Sugary",9,70,90,2,"no","up","Right",0,"FS","FL",16,"up",564,1,"Guest09"
64,0.63005542755127,0.486541718244553,59.59375,141.79167175293,44.7713890075684,382.003,1713.997,682.01,"Pictures_Onset",672.999,"09","Sugary",9,70,90,3,"no","up","Right",1,"FL","FS",16,"up",548,1,"Guest09"
64,0.35590472817421,0.483381003141403,-69.9034881591797,142.567626953125,45.0531806945801,333.005,2278.989,1247.002,"Pictures_Onset",1237.991,"09","Healthy",9,70,90,3,"no","up","Right",1,"FL","FS",16,"up",548,1,"Guest09"
64,0.585972189903259,0.493111044168472,38.7452812194824,140.116683959961,44.1608390808105,184,2694.989,1663.002,"Pictures_Onset",1653.991,"09","Sugary",9,70,90,3,"no","up","Right",1,"FL","FS",16,"up",548,1,"Guest09"
65,0.358393937349319,0.481393933296204,-68.6606063842773,143.064849853516,45.234546661377,165.004,2083.994,1048.999,"Pictures_Onset",1042.996,"09","Sugary",9,70,90,1,"no","down","Left",1,"FS","FL",17,"down",810,1,"Guest09"
65,0.37115278840065,0.494194477796555,-62.6783332824707,139.894302368164,44.0797233581543,184,2498.995,1464,"Pictures_Onset",1457.997,"09","Sugary",9,70,90,1,"no","down","Left",1,"FS","FL",17,"down",810,1,"Guest09"
65,0.642666697502136,0.495076954364777,65.5441131591797,139.665634155273,43.9969253540039,198.989,2766.003,1731.008,"Pictures_Onset",1725.005,"09","Healthy",9,70,90,1,"no","down","Left",1,"FS","FL",17,"down",810,1,"Guest09"
66,0.368222236633301,0.497370362281799,-64.065559387207,139.103698730469,43.792594909668,135.002,1256.998,232,"Pictures_Onset",216,"09","Healthy",9,70,90,2,"no","down","Left",0,"FL","FS",17,"down",740,1,"Guest09"
66,0.367619037628174,0.488333314657211,-64.255241394043,141.356201171875,44.6123847961426,232,1424.998,400,"Pictures_Onset",384,"09","Healthy",9,70,90,2,"no","down","Left",0,"FL","FS",17,"down",740,1,"Guest09"
66,0.385909110307693,0.478848487138748,-55.7721214294434,143.694839477539,45.4636383056641,166.003,1690.995,665.997,"Pictures_Onset",649.997,"09","Healthy",9,70,90,2,"no","down","Left",0,"FL","FS",17,"down",740,1,"Guest09"
66,0.639023780822754,0.487666666507721,63.8376197814941,141.484527587891,44.6592826843262,215.002,1940.992,915.994,"Pictures_Onset",899.994,"09","Sugary",9,70,90,2,"no","down","Left",0,"FL","FS",17,"down",740,1,"Guest09"
66,0.611124992370605,0.482833325862885,50.5854187011719,142.698333740234,45.1025009155273,117.005,2205.99,1180.992,"Pictures_Onset",1164.992,"09","Sugary",9,70,90,2,"no","down","Left",0,"FL","FS",17,"down",740,1,"Guest09"
66,0.377841234207153,0.492936491966248,-59.5818214416504,140.195770263672,44.1894454956055,334.003,2404.992,1379.994,"Pictures_Onset",1363.994,"09","Healthy",9,70,90,2,"no","down","Left",0,"FL","FS",17,"down",740,1,"Guest09"
66,0.594299972057343,0.523333370685577,42.6476669311523,132.586669921875,41.4216690063477,149.005,2821.99,1796.992,"Pictures_Onset",1780.992,"09","Sugary",9,70,90,2,"no","down","Left",0,"FL","FS",17,"down",740,1,"Guest09"
67,0.348523795604706,0.493309557437897,-73.3896484375,140.093811035156,44.1515464782715,216,1241.997,215.002,"Pictures_Onset",200.999,"09","Sugary",9,70,90,3,"no","up","Right",0,"FS","FL",17,"up",654,1,"Guest09"
67,0.637222230434418,0.510638892650604,62.9927825927734,135.785263061523,42.5838851928711,183.002,1541.99,514.995,"Pictures_Onset",500.992,"09","Healthy",9,70,90,3,"no","up","Right",0,"FS","FL",17,"up",654,1,"Guest09"
67,0.612888872623444,0.503925979137421,51.4066619873047,137.421875,43.180004119873,133.005,1757.99,730.995,"Pictures_Onset",716.992,"09","Healthy",9,70,90,3,"no","up","Right",0,"FS","FL",17,"up",654,1,"Guest09"
67,0.367948710918427,0.474846184253693,-64.201286315918,144.710510253906,45.8338470458984,199.001,2289.997,1263.002,"Pictures_Onset",1248.999,"09","Sugary",9,70,90,3,"no","up","Right",0,"FS","FL",17,"up",654,1,"Guest09"
67,0.596946656703949,0.483840018510818,43.9796028137207,142.443344116211,45.0088043212891,399.002,2573.99,1546.995,"Pictures_Onset",1532.992,"09","Healthy",9,70,90,3,"no","up","Right",0,"FS","FL",17,"up",654,1,"Guest09"
68,0.358106076717377,0.483409106731415,-68.7892379760742,142.547897338867,45.047119140625,350.989,1243.008,214.003,"Pictures_Onset",202.01,"09","Healthy",9,70,90,4,"no","up","Right",1,"FL","FS",17,"up",687,1,"Guest09"
68,0.439190447330475,0.451333314180374,-30.5,150.56950378418,47.9661903381348,100.007,1776.998,747.993,"Pictures_Onset",736,"09","Healthy",9,70,90,4,"no","up","Right",1,"FL","FS",17,"up",687,1,"Guest09"
68,0.383805513381958,0.464666604995728,-56.6600036621094,147.235824584961,46.7533302307129,182.003,1927.002,897.997,"Pictures_Onset",886.004,"09","Healthy",9,70,90,4,"no","up","Right",1,"FL","FS",17,"up",687,1,"Guest09"
68,0.6044762134552,0.47384124994278,47.5807914733887,144.968887329102,45.9266700744629,334.003,2192,1162.995,"Pictures_Onset",1151.002,"09","Sugary",9,70,90,4,"no","up","Right",1,"FL","FS",17,"up",687,1,"Guest09"
68,0.391393929719925,0.493848443031311,-53.1089324951172,139.928619384766,44.0919723510742,349.99,2626.01,1597.005,"Pictures_Onset",1585.012,"09","Healthy",9,70,90,4,"no","up","Right",1,"FL","FS",17,"up",687,1,"Guest09"
69,0.294208317995071,0.503500044345856,-99.0754165649414,137.552505493164,43.2283363342285,116.992,1504.998,481.996,"Pictures_Onset",464,"09","Sugary",9,70,90,2,"no","down","Left",1,"FS","FL",18,"down",771,1,"Guest09"
69,0.417846083641052,0.505769193172455,-40.5869216918945,136.976165771484,43.0192260742188,200,1688.998,665.996,"Pictures_Onset",648,"09","Sugary",9,70,90,2,"no","down","Left",1,"FS","FL",18,"down",771,1,"Guest09"
69,0.608047664165497,0.513222217559814,49.186824798584,135.091262817383,42.3325424194336,332.006,1971.994,948.992,"Pictures_Onset",930.996,"09","Healthy",9,70,90,2,"no","down","Left",1,"FS","FL",18,"down",771,1,"Guest09"
69,0.409688919782639,0.488311111927032,-44.4811134338379,141.332901000977,44.6040000915527,232.998,2387.994,1364.992,"Pictures_Onset",1346.996,"09","Sugary",9,70,90,2,"no","down","Left",1,"FS","FL",18,"down",771,1,"Guest09"
70,0.381111145019531,0.522777795791626,-58.0118560791016,132.735931396484,41.4755554199219,132.992,1548.006,498.009,"Pictures_Onset",507.008,"09","Healthy",9,70,90,3,"no","down","Left",0,"FL","FS",18,"down",1951,1,"Guest09"
70,0.60058331489563,0.513083338737488,45.6904144287109,135.099166870117,42.3345832824707,114.995,1782.003,732.006,"Pictures_Onset",741.005,"09","Sugary",9,70,90,3,"no","down","Left",0,"FL","FS",18,"down",1951,1,"Guest09"
70,0.565357089042664,0.504238069057465,29.0166683197021,137.350692749023,43.1540412902832,216,2231.002,1181.005,"Pictures_Onset",1190.004,"09","Sugary",9,70,90,3,"no","down","Left",0,"FL","FS",18,"down",1951,1,"Guest09"
70,0.357119023799896,0.512642860412598,-69.264289855957,135.232391357422,42.3839302062988,448.998,2531.008,1481.011,"Pictures_Onset",1490.01,"09","Healthy",9,70,90,3,"no","down","Left",0,"FL","FS",18,"down",1951,1,"Guest09"
71,0.616183757781982,0.521367788314819,53.0086212158203,133.064483642578,41.5947036743164,464.999,2128.998,1097.996,"Pictures_Onset",1088,"09","Healthy",9,70,90,4,"no","up","Right",0,"FS","FL",18,"up",914,1,"Guest09"
72,0.365127503871918,0.505970656871796,-65.5165710449219,136.909683227539,42.993537902832,549.005,1312.998,283.993,"Pictures_Onset",272,"09","Healthy",9,70,90,1,"no","up","Right",1,"FL","FS",18,"up",602,1,"Guest09"
72,0.391312509775162,0.487833321094513,-53.069580078125,141.436660766602,44.6404190063477,115.994,1912,882.995,"Pictures_Onset",871.002,"09","Healthy",9,70,90,1,"no","up","Right",1,"FL","FS",18,"up",602,1,"Guest09"
72,0.6429722905159,0.496749997138977,65.6494445800781,139.217514038086,43.8347206115723,183.001,2111.002,1081.997,"Pictures_Onset",1070.004,"09","Sugary",9,70,90,1,"no","up","Right",1,"FL","FS",18,"up",602,1,"Guest09"
72,0.643853306770325,0.491693317890167,66.0602645874023,140.507064819336,44.3027992248535,400,2326.003,1296.998,"Pictures_Onset",1285.005,"09","Sugary",9,70,90,1,"no","up","Right",1,"FL","FS",18,"up",602,1,"Guest09"
72,0.389939397573471,0.488757580518723,-53.7690925598145,141.223937988281,44.5630340576172,166.003,2809.997,1780.992,"Pictures_Onset",1768.999,"09","Healthy",9,70,90,1,"no","up","Right",1,"FL","FS",18,"up",602,1,"Guest09"
73,0.358259290456772,0.503074049949646,-68.7251892089844,137.646301269531,43.2618560791016,134.003,1230.989,198.989,"Pictures_Onset",189.991,"09","Sugary",9,70,90,3,"no","down","Left",1,"FS","FL",19,"down",740,1,"Guest09"
73,0.634256422519684,0.501871824264526,61.543083190918,137.964614868164,43.3779487609863,200,1729.997,697.997,"Pictures_Onset",688.999,"09","Healthy",9,70,90,3,"no","down","Left",1,"FS","FL",19,"down",740,1,"Guest09"
73,0.618589758872986,0.525923132896423,54.1902503967285,131.929992675781,41.1817893981934,200,1979.994,947.994,"Pictures_Onset",938.996,"09","Healthy",9,70,90,3,"no","down","Left",1,"FS","FL",19,"down",740,1,"Guest09"
73,0.619041681289673,0.512916684150696,54.4266700744629,135.130416870117,42.3479156494141,117.005,2212.992,1180.992,"Pictures_Onset",1171.994,"09","Healthy",9,70,90,3,"no","down","Left",1,"FS","FL",19,"down",740,1,"Guest09"
73,0.627499938011169,0.509791672229767,58.344165802002,135.922912597656,42.6374969482422,115.994,2362.995,1330.995,"Pictures_Onset",1321.997,"09","Healthy",9,70,90,3,"no","down","Left",1,"FS","FL",19,"down",740,1,"Guest09"
73,0.392516672611237,0.475166648626328,-52.5338363647461,144.613174438477,45.7980041503906,314.995,2562.995,1530.995,"Pictures_Onset",1521.997,"09","Sugary",9,70,90,3,"no","down","Left",1,"FS","FL",19,"down",740,1,"Guest09"
74,0.348749995231628,0.494972199201584,-73.2513885498047,139.640823364258,43.9883308410645,184,1280.998,248.998,"Pictures_Onset",240,"09","Healthy",9,70,90,4,"no","down","Left",0,"FL","FS",19,"down",899,1,"Guest09"
74,0.559755563735962,0.493266642093658,26.4151096343994,140.10710144043,44.1580009460449,232.999,1548.006,516.006,"Pictures_Onset",507.008,"09","Sugary",9,70,90,4,"no","down","Left",0,"FL","FS",19,"down",899,1,"Guest09"
74,0.643451035022736,0.491686254739761,65.9529418945312,140.483535766602,44.2937316894531,265.996,1831.002,799.002,"Pictures_Onset",790.004,"09","Sugary",9,70,90,4,"no","down","Left",0,"FL","FS",19,"down",899,1,"Guest09"
74,0.381074100732803,0.439999967813492,-57.9024124145508,153.451477050781,49.0148162841797,283.008,2346.995,1314.995,"Pictures_Onset",1305.997,"09","Healthy",9,70,90,4,"no","down","Left",0,"FL","FS",19,"down",899,1,"Guest09"
75,0.604305565357208,0.506222188472748,47.4650001525879,136.866668701172,42.9794425964355,183.002,1586.995,566.003,"Pictures_Onset",545.997,"09","Healthy",9,70,90,1,"no","up","Right",0,"FS","FL",19,"up",667,1,"Guest09"
75,0.633044481277466,0.496233314275742,60.9854469299316,139.361465454102,43.8864402770996,483.994,1818.995,798.003,"Pictures_Onset",777.997,"09","Healthy",9,70,90,1,"no","up","Right",0,"FS","FL",19,"up",667,1,"Guest09"
75,0.377499967813492,0.496568977832794,-59.7021789550781,139.270126342773,43.8536796569824,466.995,2385.997,1365.005,"Pictures_Onset",1344.999,"09","Sugary",9,70,90,1,"no","up","Right",0,"FS","FL",19,"up",667,1,"Guest09"
76,0.400933355093002,0.495155602693558,-48.5837821960449,139.631774902344,43.985107421875,233.997,1521.997,497.997,"Pictures_Onset",480.999,"09","Healthy",9,70,90,2,"no","up","Right",1,"FL","FS",19,"up",519,1,"Guest09"
76,0.371545404195786,0.483121275901794,-62.498477935791,142.635299682617,45.0778770446777,349.99,2104,1080,"Pictures_Onset",1063.002,"09","Healthy",9,70,90,2,"no","up","Right",1,"FL","FS",19,"up",519,1,"Guest09"
76,0.631066679954529,0.50056666135788,60.1259994506836,138.249328613281,43.4823379516602,150.004,2536.998,1512.998,"Pictures_Onset",1496,"09","Sugary",9,70,90,2,"no","up","Right",1,"FL","FS",19,"up",519,1,"Guest09"
76,0.42811107635498,0.491666674613953,-35.7552795410156,140.504165649414,44.3033294677734,183.002,2770.995,1746.995,"Pictures_Onset",1729.997,"09","Healthy",9,70,90,2,"no","up","Right",1,"FL","FS",19,"up",519,1,"Guest09"
77,0.331962943077087,0.485370308160782,-81.2255554199219,142.041107177734,44.8633346557617,131.993,1399.002,366.004,"Pictures_Onset",358.004,"09","Sugary",9,70,90,4,"no","down","Left",1,"FS","FL",20,"down",769,1,"Guest09"
77,0.559129595756531,0.502611100673676,26.135368347168,137.794418334961,43.3162994384766,282.995,1615.002,582.004,"Pictures_Onset",574.004,"09","Healthy",9,70,90,4,"no","down","Left",1,"FS","FL",20,"down",769,1,"Guest09"
77,0.622349202632904,0.499619036912918,55.9457206726074,138.511566162109,43.5774612426758,332.006,1947.994,914.996,"Pictures_Onset",906.996,"09","Healthy",9,70,90,4,"no","down","Left",1,"FS","FL",20,"down",769,1,"Guest09"
77,0.411291658878326,0.497270822525024,-43.7729148864746,139.092926025391,43.7887420654297,249.997,2362.995,1329.997,"Pictures_Onset",1321.997,"09","Sugary",9,70,90,4,"no","down","Left",1,"FS","FL",20,"down",769,1,"Guest09"
78,0.622279644012451,0.487333327531815,55.9564476013184,141.603210449219,44.7017135620117,500.006,1668.992,632.998,"Pictures_Onset",627.994,"09","Sugary",9,70,90,1,"no","down","Left",0,"FL","FS",20,"down",851,1,"Guest09"
78,0.625484764575958,0.480575740337372,57.4139404296875,143.246688842773,45.2996940612793,167.002,2200.998,1165.004,"Pictures_Onset",1160,"09","Sugary",9,70,90,1,"no","down","Left",0,"FL","FS",20,"down",851,1,"Guest09"
78,0.362458318471909,0.462972193956375,-66.743049621582,147.695693969727,46.9199981689453,183.002,2450.995,1415.001,"Pictures_Onset",1409.997,"09","Healthy",9,70,90,1,"no","down","Left",0,"FL","FS",20,"down",851,1,"Guest09"
79,0.358303010463715,0.476606070995331,-68.7098541259766,144.264083862305,45.6713676452637,350.004,1480.998,448.998,"Pictures_Onset",440,"09","Sugary",9,70,90,2,"no","up","Right",0,"FS","FL",20,"up",603,1,"Guest09"
79,0.644785702228546,0.490642845630646,66.5423812866211,140.760482788086,44.3942832946777,216,1913.997,881.997,"Pictures_Onset",872.999,"09","Healthy",9,70,90,2,"no","up","Right",0,"FS","FL",20,"up",603,1,"Guest09"
79,0.604777812957764,0.483506172895432,47.688648223877,142.535430908203,45.0412330627441,432.998,2179.994,1147.994,"Pictures_Onset",1138.996,"09","Healthy",9,70,90,2,"no","up","Right",0,"FS","FL",20,"up",603,1,"Guest09"
79,0.369969666004181,0.478939354419708,-63.1815147399902,143.67756652832,45.4560585021973,165.99,2696,1664,"Pictures_Onset",1655.002,"09","Sugary",9,70,90,2,"no","up","Right",0,"FS","FL",20,"up",603,1,"Guest09"
80,0.344738066196442,0.475500047206879,-75.1419067382812,144.519760131836,45.7635726928711,216.013,1445.99,414.988,"Pictures_Onset",404.992,"09","Healthy",9,70,90,3,"no","up","Right",1,"FL","FS",20,"up",571,1,"Guest09"
80,0.627111077308655,0.492407381534576,58.2525978088379,140.313339233398,44.2340774536133,134.003,1745.997,714.995,"Pictures_Onset",704.999,"09","Sugary",9,70,90,3,"no","up","Right",1,"FL","FS",20,"up",571,1,"Guest09"
80,0.628642857074738,0.497357159852982,58.9449996948242,139.043319702148,43.7711906433105,216.998,1912,880.998,"Pictures_Onset",871.002,"09","Sugary",9,70,90,3,"no","up","Right",1,"FL","FS",20,"up",571,1,"Guest09"
80,0.357083320617676,0.526027798652649,-69.3161087036133,131.945541381836,41.185001373291,183.001,2211.994,1180.992,"Pictures_Onset",1170.996,"09","Healthy",9,70,90,3,"no","up","Right",1,"FL","FS",20,"up",571,1,"Guest09"
80,0.372708380222321,0.486197948455811,-61.9029121398926,141.830093383789,44.7846908569336,514.01,2428.992,1397.99,"Pictures_Onset",1387.994,"09","Healthy",9,70,90,3,"no","up","Right",1,"FL","FS",20,"up",571,1,"Guest09"
