"trial_id","sx","sy","px","py","pz","duration","timestamp","trial_onset","label","label_onset","subject_nr.x","AOI_visited","subject_nr.y","fat_craving","sugar_craving","Block","practice","Arrow_Direction","Arrow_Position","Congruence","Left_Picture","Right_Picture","Pair_Number","response","response_time","accuracy","part_ID"
1,0.390933334827423,0.503066658973694,-51.7406616210938,138.082672119141,43.4196701049805,150.004,1288.998,265.996,"Pictures_Onset",240,"06","Salty",6,40,60,1,"no","up","Left",1,"FF","FL",1,"up",587,1,"Students06"
1,0.380238085985184,0.502119064331055,-56.9035682678223,138.300216674805,43.5004806518555,216.998,1472,448.998,"Pictures_Onset",423.002,"06","Salty",6,40,60,1,"no","up","Left",1,"FF","FL",1,"up",587,1,"Students06"
1,0.619243562221527,0.499115437269211,57.1948699951172,139.07307434082,43.7814064025879,416,1838.003,815.001,"Pictures_Onset",789.005,"06","Healthy",6,40,60,1,"no","up","Left",1,"FF","FL",1,"up",587,1,"Students06"
1,0.633066713809967,0.529466688632965,63.6773376464844,131.446670532227,41.0053329467773,148.992,2304,1280.998,"Pictures_Onset",1255.002,"06","Healthy",6,40,60,1,"no","up","Left",1,"FF","FL",1,"up",587,1,"Students06"
1,0.634999990463257,0.53383332490921,64.5700073242188,130.324996948242,40.5983352661133,148.992,2488,1464.998,"Pictures_Onset",1439.002,"06","Healthy",6,40,60,1,"no","up","Left",1,"FF","FL",1,"up",587,1,"Students06"
1,0.637066662311554,0.473066657781601,65.6539993286133,145.626998901367,46.1659965515137,150.003,2819.994,1796.992,"Pictures_Onset",1770.996,"06","Healthy",6,40,60,1,"no","up","Left",1,"FF","FL",1,"up",587,1,"Students06"
2,0.375641018152237,0.498051285743713,-59.0476913452148,139.354873657227,43.8835906982422,199.001,1231.002,200,"Pictures_Onset",182.004,"06","Healthy",6,40,60,2,"no","up","Left",0,"FL","FF",1,"up",572,1,"Students06"
2,0.357909083366394,0.49212121963501,-67.4978790283203,140.839401245117,44.424243927002,167.002,1464,432.998,"Pictures_Onset",415.002,"06","Healthy",6,40,60,2,"no","up","Left",0,"FL","FF",1,"up",572,1,"Students06"
2,0.342243552207947,0.478461533784866,-74.9990997314453,144.294738769531,45.6834564208984,416.998,1663.002,632,"Pictures_Onset",614.004,"06","Healthy",6,40,60,2,"no","up","Left",0,"FL","FF",1,"up",572,1,"Students06"
2,0.39630001783371,0.49616664648056,-49.187328338623,139.843338012695,44.0620040893555,150.004,2128.998,1097.996,"Pictures_Onset",1080,"06","Healthy",6,40,60,2,"no","up","Left",0,"FL","FF",1,"up",572,1,"Students06"
2,0.399333357810974,0.488787919282913,-47.7351531982422,141.69970703125,44.7363624572754,166.003,2312,1280.998,"Pictures_Onset",1263.002,"06","Healthy",6,40,60,2,"no","up","Left",0,"FL","FF",1,"up",572,1,"Students06"
2,0.628874957561493,0.490708321332932,61.7266693115234,141.209594726562,44.5591697692871,116.006,2545.997,1514.995,"Pictures_Onset",1496.999,"06","Salty",6,40,60,2,"no","up","Left",0,"FL","FF",1,"up",572,1,"Students06"
3,0.411833345890045,0.47714102268219,-41.7698707580566,144.611297607422,45.7964134216309,416,1251.994,216.999,"Pictures_Onset",202.996,"06","Salty",6,40,60,3,"no","down","Right",0,"FF","FL",1,"down",431,1,"Students06"
3,0.592435896396637,0.493025630712509,44.3715362548828,140.632064819336,44.3489761352539,198.989,1901.005,866.01,"Pictures_Onset",852.007,"06","Healthy",6,40,60,3,"no","down","Right",0,"FF","FL",1,"down",431,1,"Students06"
3,0.629458367824554,0.495000004768372,62.0108337402344,140.109985351562,44.158748626709,116.992,2400,1365.005,"Pictures_Onset",1351.002,"06","Healthy",6,40,60,3,"no","down","Right",0,"FF","FL",1,"down",431,1,"Students06"
4,0.389363646507263,0.510787904262543,-52.4627304077148,136.157272338867,42.7203025817871,166.003,1288,265.997,"Pictures_Onset",239.002,"06","Healthy",6,40,60,4,"no","down","Right",1,"FL","FF",1,"down",437,1,"Students06"
4,0.627652168273926,0.495260894298553,61.1600074768066,140.036666870117,44.133186340332,365.99,1704,681.997,"Pictures_Onset",655.002,"06","Salty",6,40,60,4,"no","down","Right",1,"FL","FF",1,"down",437,1,"Students06"
4,0.408000022172928,0.495777755975723,-43.5396270751953,139.915939331055,44.0874099731445,131.993,2385.997,1363.994,"Pictures_Onset",1336.999,"06","Healthy",6,40,60,4,"no","down","Right",1,"FL","FF",1,"down",437,1,"Students06"
4,0.365512877702713,0.490512818098068,-63.8794937133789,141.260375976562,44.5773048400879,415.002,2568.998,1546.995,"Pictures_Onset",1520,"06","Healthy",6,40,60,4,"no","down","Right",1,"FL","FF",1,"down",437,1,"Students06"
5,0.614923059940338,0.483897477388382,55.0671844482422,142.909759521484,45.1784629821777,199.002,1232,200,"Pictures_Onset",183.002,"06","Healthy",6,40,60,2,"no","up","Left",1,"FF","FL",2,"up",468,1,"Students06"
5,0.63108891248703,0.480644434690475,62.7937812805176,143.726013183594,45.4744415283203,232.998,1464,432,"Pictures_Onset",415.002,"06","Healthy",6,40,60,2,"no","up","Left",1,"FF","FL",2,"up",468,1,"Students06"
5,0.414333343505859,0.492062509059906,-40.6235427856445,140.850006103516,44.4276084899902,515.993,1797.005,765.005,"Pictures_Onset",748.007,"06","Salty",6,40,60,2,"no","up","Left",1,"FF","FL",2,"up",468,1,"Students06"
5,0.393717914819717,0.496307700872421,-50.4715385437012,139.771270751953,44.0366630554199,200,2345.997,1313.997,"Pictures_Onset",1296.999,"06","Salty",6,40,60,2,"no","up","Left",1,"FF","FL",2,"up",468,1,"Students06"
5,0.427075743675232,0.4969242811203,-34.4963645935059,139.613037109375,43.9786338806152,350.003,2594.995,1562.995,"Pictures_Onset",1545.997,"06","Salty",6,40,60,2,"no","up","Left",1,"FF","FL",2,"up",468,1,"Students06"
6,0.403366655111313,0.490000069141388,-45.8553314208984,141.380661010742,44.6210021972656,150.003,1314.995,282.995,"Pictures_Onset",265.997,"06","Healthy",6,40,60,3,"no","up","Left",0,"FL","FF",2,"up",403,1,"Students06"
6,0.377205103635788,0.484564125537872,-58.3130722045898,142.760513305664,45.123592376709,200,1497.997,465.997,"Pictures_Onset",448.999,"06","Healthy",6,40,60,3,"no","up","Left",0,"FL","FF",2,"up",403,1,"Students06"
6,0.363205105066299,0.494333297014236,-64.9792327880859,140.296142578125,44.226921081543,200,1730.995,698.995,"Pictures_Onset",681.997,"06","Healthy",6,40,60,3,"no","up","Left",0,"FL","FF",2,"up",403,1,"Students06"
6,0.381199985742569,0.487644404172897,-56.3660011291504,141.974884033203,44.8384475708008,233.011,1963.994,931.994,"Pictures_Onset",914.996,"06","Healthy",6,40,60,3,"no","up","Left",0,"FL","FF",2,"up",403,1,"Students06"
6,0.640618979930878,0.479571402072906,67.3564300537109,144.03547668457,45.5885696411133,216.012,2363.994,1331.994,"Pictures_Onset",1314.996,"06","Salty",6,40,60,3,"no","up","Left",0,"FL","FF",2,"up",403,1,"Students06"
6,0.639695644378662,0.483579635620117,66.9499969482422,142.995498657227,45.2084045410156,367.001,2613.005,1581.005,"Pictures_Onset",1564.007,"06","Salty",6,40,60,3,"no","up","Left",0,"FL","FF",2,"up",403,1,"Students06"
7,0.392488896846771,0.493688881397247,-51.0144462585449,140.461975097656,44.287109375,233.997,1309.005,281.997,"Pictures_Onset",260.007,"06","Salty",6,40,60,4,"no","down","Right",0,"FF","FL",2,"down",394,1,"Students06"
7,0.366424262523651,0.496787905693054,-63.4957656860352,139.656967163086,43.9936370849609,166.004,1592.998,565.99,"Pictures_Onset",544,"06","Salty",6,40,60,4,"no","down","Right",0,"FF","FL",2,"down",394,1,"Students06"
7,0.346533328294754,0.503066718578339,-72.9271087646484,138.103775024414,43.4277801513672,232.998,1792,764.992,"Pictures_Onset",743.002,"06","Salty",6,40,60,4,"no","down","Right",0,"FF","FL",2,"down",394,1,"Students06"
7,0.333633333444595,0.513166666030884,-79.1139984130859,135.507308959961,42.4833374023438,149.99,2058.01,1031.002,"Pictures_Onset",1009.012,"06","Salty",6,40,60,4,"no","down","Right",0,"FF","FL",2,"down",394,1,"Students06"
7,0.408444404602051,0.508638918399811,-43.4597206115723,136.675277709961,42.9077796936035,183.001,2375.002,1347.994,"Pictures_Onset",1326.004,"06","Salty",6,40,60,4,"no","down","Right",0,"FF","FL",2,"down",394,1,"Students06"
7,0.635238111019135,0.491127014160156,64.7715911865234,141.120330810547,44.5265121459961,333.005,2640.998,1613.99,"Pictures_Onset",1592,"06","Healthy",6,40,60,4,"no","down","Right",0,"FF","FL",2,"down",394,1,"Students06"
8,0.386366665363312,0.50139993429184,-53.9843330383301,138.514007568359,43.5780029296875,151.002,1230.003,199.001,"Pictures_Onset",181.005,"06","Healthy",6,40,60,1,"no","down","Right",1,"FL","FF",2,"down",531,1,"Students06"
8,0.363966673612595,0.494299948215485,-64.6413345336914,140.300018310547,44.2273330688477,148.992,1414.003,383.001,"Pictures_Onset",365.005,"06","Healthy",6,40,60,1,"no","down","Right",1,"FL","FF",2,"down",531,1,"Students06"
8,0.596871793270111,0.496128231287003,46.4581985473633,139.795135498047,44.0443649291992,200,1779.994,748.992,"Pictures_Onset",730.996,"06","Salty",6,40,60,1,"no","down","Right",1,"FL","FF",2,"down",531,1,"Students06"
8,0.622733354568481,0.500933349132538,58.7837753295898,138.606674194336,43.6122207641602,234.009,2011.994,980.992,"Pictures_Onset",962.996,"06","Salty",6,40,60,1,"no","down","Right",1,"FL","FF",2,"down",531,1,"Students06"
8,0.647199988365173,0.505733370780945,70.408332824707,137.405349731445,43.1746673583984,149.005,2345.997,1314.995,"Pictures_Onset",1296.999,"06","Salty",6,40,60,1,"no","down","Right",1,"FL","FF",2,"down",531,1,"Students06"
8,0.629333257675171,0.499633252620697,61.9390029907227,138.917999267578,43.7250022888184,150.004,2544.998,1513.996,"Pictures_Onset",1496,"06","Salty",6,40,60,1,"no","down","Right",1,"FL","FF",2,"down",531,1,"Students06"
8,0.382923096418381,0.497794896364212,-55.6215362548828,139.403335571289,43.900260925293,200,2777.997,1746.995,"Pictures_Onset",1728.999,"06","Healthy",6,40,60,1,"no","down","Right",1,"FL","FF",2,"down",531,1,"Students06"
9,0.408500015735626,0.486066669225693,-43.3146667480469,142.352340698242,44.9749984741211,150.004,1309.99,281.996,"Pictures_Onset",260.992,"06","Salty",6,40,60,3,"no","up","Left",1,"FF","FL",3,"up",443,1,"Students06"
9,0.38745453953743,0.476424247026443,-53.4193878173828,144.804840087891,45.8678779602051,166.004,1493.99,465.996,"Pictures_Onset",444.992,"06","Salty",6,40,60,3,"no","up","Left",1,"FF","FL",3,"up",443,1,"Students06"
9,0.623809516429901,0.471404790878296,59.2911911010742,146.050003051758,46.320240020752,217.996,1759.002,731.008,"Pictures_Onset",710.004,"06","Healthy",6,40,60,3,"no","up","Left",1,"FF","FL",3,"up",443,1,"Students06"
9,0.643833458423615,0.475190490484238,68.9128570556641,145.115234375,45.9785766601562,215.002,2026.995,999.001,"Pictures_Onset",977.997,"06","Healthy",6,40,60,3,"no","up","Left",1,"FF","FL",3,"up",443,1,"Students06"
9,0.581833302974701,0.481541663408279,39.2970809936523,143.531661987305,45.403751373291,117.005,2308.992,1280.998,"Pictures_Onset",1259.994,"06","Healthy",6,40,60,3,"no","up","Left",1,"FF","FL",3,"up",443,1,"Students06"
9,0.382999986410141,0.474666684865952,-55.5048484802246,145.26513671875,46.0346946716309,350.003,2507.994,1480,"Pictures_Onset",1458.996,"06","Salty",6,40,60,3,"no","up","Left",1,"FF","FL",3,"up",443,1,"Students06"
10,0.601092576980591,0.502499938011169,48.4559288024902,138.236099243164,43.4762954711914,281.997,1278.003,249.997,"Pictures_Onset",229.005,"06","Salty",6,40,60,4,"no","up","Left",0,"FL","FF",3,"up",547,1,"Students06"
10,0.376104176044464,0.497583329677582,-58.8008308410645,139.474151611328,43.9270820617676,250.995,1643.008,615.002,"Pictures_Onset",594.01,"06","Healthy",6,40,60,4,"no","up","Left",0,"FL","FF",3,"up",547,1,"Students06"
10,0.401194483041763,0.498666673898697,-46.8394470214844,139.174179077148,43.8169441223145,182.003,1927.002,898.996,"Pictures_Onset",878.004,"06","Healthy",6,40,60,4,"no","up","Left",0,"FL","FF",3,"up",547,1,"Students06"
10,0.617999970912933,0.486703723669052,56.5416679382324,142.218322753906,44.9262962341309,283.008,2176,1147.994,"Pictures_Onset",1127.002,"06","Salty",6,40,60,4,"no","up","Left",0,"FL","FF",3,"up",547,1,"Students06"
10,0.42204761505127,0.483809560537338,-36.8930931091309,142.918350219727,45.1816673278809,216.999,2758.003,1729.997,"Pictures_Onset",1709.005,"06","Healthy",6,40,60,4,"no","up","Left",0,"FL","FF",3,"up",547,1,"Students06"
11,0.403266668319702,0.49753338098526,-45.8356704711914,139.455001831055,43.9200019836426,148.992,1283.008,250.01,"Pictures_Onset",234.01,"06","Salty",6,40,60,1,"no","down","Right",0,"FF","FL",3,"down",568,1,"Students06"
11,0.375277757644653,0.486972212791443,-59.2374992370605,142.130844116211,44.893611907959,183.001,1481.997,448.999,"Pictures_Onset",432.999,"06","Salty",6,40,60,1,"no","down","Right",0,"FF","FL",3,"down",568,1,"Students06"
11,0.621305584907532,0.488972216844559,58.1227760314941,141.592788696289,44.6988945007324,183.001,1749.005,716.007,"Pictures_Onset",700.007,"06","Healthy",6,40,60,1,"no","down","Right",0,"FF","FL",3,"down",568,1,"Students06"
11,0.639705896377563,0.501627445220947,66.8501968383789,138.466857910156,43.5607872009277,266.995,1965.005,932.007,"Pictures_Onset",916.007,"06","Healthy",6,40,60,1,"no","down","Right",0,"FF","FL",3,"down",568,1,"Students06"
11,0.672422170639038,0.509555578231812,82.4655532836914,136.46110534668,42.8297729492188,232.999,2264.998,1232,"Pictures_Onset",1216,"06","Healthy",6,40,60,1,"no","down","Right",0,"FF","FL",3,"down",568,1,"Students06"
11,0.653640985488892,0.452538430690765,73.5756454467773,150.845901489258,48.0656394958496,199.987,2547.008,1514.01,"Pictures_Onset",1498.01,"06","Healthy",6,40,60,1,"no","down","Right",0,"FF","FL",3,"down",568,1,"Students06"
11,0.625757575035095,0.432424247264862,60.250904083252,155.888488769531,49.9015159606934,167.002,2780.006,1747.008,"Pictures_Onset",1731.008,"06","Healthy",6,40,60,1,"no","down","Right",0,"FF","FL",3,"down",568,1,"Students06"
12,0.396749973297119,0.48908331990242,-49.0104141235352,141.568328857422,44.6904144287109,115.994,1280.998,248.998,"Pictures_Onset",232,"06","Healthy",6,40,60,2,"no","down","Right",1,"FL","FF",3,"down",453,1,"Students06"
12,0.363041669130325,0.492333322763443,-64.9624938964844,140.813323974609,44.4133338928223,117.005,1512.998,480.998,"Pictures_Onset",464,"06","Healthy",6,40,60,2,"no","down","Right",1,"FL","FF",3,"down",453,1,"Students06"
12,0.342470586299896,0.502176523208618,-74.837646484375,138.313125610352,43.5054893493652,265.997,1680,648,"Pictures_Onset",631.002,"06","Healthy",6,40,60,2,"no","down","Right",1,"FL","FF",3,"down",453,1,"Students06"
12,0.391407430171967,0.465703696012497,-51.5033302307129,147.537048339844,46.8603706359863,134.003,2011.994,979.994,"Pictures_Onset",962.996,"06","Healthy",6,40,60,2,"no","down","Right",1,"FL","FF",3,"down",453,1,"Students06"
12,0.409666687250137,0.469533294439316,-42.8289985656738,146.557983398438,46.5053329467773,150.003,2178.995,1146.995,"Pictures_Onset",1129.997,"06","Healthy",6,40,60,2,"no","down","Right",1,"FL","FF",3,"down",453,1,"Students06"
12,0.658027768135071,0.483027696609497,75.688606262207,143.141662597656,45.2616691589355,182.003,2412.992,1380.992,"Pictures_Onset",1363.994,"06","Salty",6,40,60,2,"no","down","Right",1,"FL","FF",3,"down",453,1,"Students06"
12,0.636318266391754,0.484045475721359,65.2948379516602,142.868942260742,45.1637916564941,350.003,2627.994,1595.994,"Pictures_Onset",1578.996,"06","Salty",6,40,60,2,"no","down","Right",1,"FL","FF",3,"down",453,1,"Students06"
13,0.373071432113647,0.49383333325386,-60.2207107543945,140.394760131836,44.2616653442383,216.998,1279.002,249.997,"Pictures_Onset",230.004,"06","Salty",6,40,60,4,"no","up","Left",1,"FF","FL",4,"up",441,1,"Students06"
13,0.35229167342186,0.528270840644836,-70.1933288574219,131.712280273438,41.1016654968262,248.998,1545.997,516.992,"Pictures_Onset",496.999,"06","Salty",6,40,60,4,"no","up","Left",1,"FF","FL",4,"up",441,1,"Students06"
13,0.337614059448242,0.549561321735382,-77.2507019042969,126.370872497559,39.1585998535156,300.006,1827.994,798.989,"Pictures_Onset",778.996,"06","Salty",6,40,60,4,"no","up","Left",1,"FF","FL",4,"up",441,1,"Students06"
13,0.606454610824585,0.504515171051025,50.9763641357422,137.716369628906,43.2890892028809,166.003,2210.995,1181.99,"Pictures_Onset",1161.997,"06","Healthy",6,40,60,4,"no","up","Left",1,"FF","FL",4,"up",441,1,"Students06"
13,0.632583320140839,0.503187537193298,63.5083312988281,138.036880493164,43.4020881652832,248.999,2428.006,1399.001,"Pictures_Onset",1379.008,"06","Healthy",6,40,60,4,"no","up","Left",1,"FF","FL",4,"up",441,1,"Students06"
13,0.61377078294754,0.496791660785675,54.4841651916504,139.68229675293,44.0037498474121,249.997,2710.003,1680.998,"Pictures_Onset",1661.005,"06","Healthy",6,40,60,4,"no","up","Left",1,"FF","FL",4,"up",441,1,"Students06"
14,0.385600000619888,0.499700009822845,-54.227668762207,138.918365478516,43.7243347167969,149.99,1272,250.01,"Pictures_Onset",223.002,"06","Healthy",6,40,60,1,"no","up","Left",0,"FL","FF",4,"up",551,1,"Students06"
14,0.36366668343544,0.492238074541092,-64.7476196289062,140.849044799805,44.427619934082,100.006,1454.989,432.999,"Pictures_Onset",405.991,"06","Healthy",6,40,60,1,"no","up","Left",0,"FL","FF",4,"up",551,1,"Students06"
14,0.624882400035858,0.511411726474762,59.9103927612305,135.980590820312,42.6554908752441,265.996,2071.002,1049.012,"Pictures_Onset",1022.004,"06","Salty",6,40,60,1,"no","up","Left",0,"FL","FF",4,"up",551,1,"Students06"
14,0.614911079406738,0.501044392585754,55.0693359375,138.614883422852,43.6148910522461,232.998,2635.994,1614.004,"Pictures_Onset",1586.996,"06","Salty",6,40,60,1,"no","up","Left",0,"FL","FF",4,"up",551,1,"Students06"
15,0.395909041166306,0.495212078094482,-49.317569732666,140.035461425781,44.1306076049805,167.002,1280,248,"Pictures_Onset",231.002,"06","Salty",6,40,60,2,"no","down","Right",0,"FF","FL",4,"down",427,1,"Students06"
15,0.367384612560272,0.497128188610077,-63.0320510864258,139.601547241211,43.9756393432617,200,1496.998,464.998,"Pictures_Onset",448,"06","Salty",6,40,60,2,"no","down","Right",0,"FF","FL",4,"down",427,1,"Students06"
15,0.621638834476471,0.478277772665024,58.313892364502,144.284439086914,45.6794471740723,182.989,1830.003,798.003,"Pictures_Onset",781.005,"06","Healthy",6,40,60,2,"no","down","Right",0,"FF","FL",4,"down",427,1,"Students06"
15,0.645333290100098,0.482883304357529,69.557502746582,143.181335449219,45.2770004272461,316.007,2045.99,1013.99,"Pictures_Onset",996.992,"06","Healthy",6,40,60,2,"no","down","Right",0,"FF","FL",4,"down",427,1,"Students06"
15,0.407606035470963,0.492060631513596,-43.8581809997559,140.83544921875,44.4230308532715,167.002,2528,1496,"Pictures_Onset",1479.002,"06","Salty",6,40,60,2,"no","down","Right",0,"FF","FL",4,"down",427,1,"Students06"
15,0.377571433782578,0.491095215082169,-58.1321411132812,141.112609863281,44.5247611999512,216.998,2728,1696,"Pictures_Onset",1679.002,"06","Salty",6,40,60,2,"no","down","Right",0,"FF","FL",4,"down",427,1,"Students06"
16,0.396101444959641,0.497318834066391,-49.2391319274902,139.542327880859,43.9514465332031,367.002,1416,382.003,"Pictures_Onset",367.002,"06","Healthy",6,40,60,3,"no","down","Right",1,"FL","FF",4,"down",428,1,"Students06"
16,0.613692343235016,0.491179436445236,54.5215377807617,141.087692260742,44.5146141052246,200,1865.997,832,"Pictures_Onset",816.999,"06","Salty",6,40,60,3,"no","down","Right",1,"FL","FF",4,"down",428,1,"Students06"
16,0.638555586338043,0.477425903081894,66.3161087036133,144.525924682617,45.7657470703125,283.008,2098.995,1064.998,"Pictures_Onset",1049.997,"06","Salty",6,40,60,3,"no","down","Right",1,"FL","FF",4,"down",428,1,"Students06"
16,0.581083297729492,0.500555515289307,39.0066680908203,138.71223449707,43.6494445800781,183.002,2714.995,1680.998,"Pictures_Onset",1665.997,"06","Salty",6,40,60,3,"no","down","Right",1,"FL","FF",4,"down",428,1,"Students06"
17,0.388444453477859,0.499844431877136,-52.9275550842285,138.897323608398,43.7173347473145,232.998,1296,183.002,"Pictures_Onset",247.002,"06","Salty",6,40,60,1,"no","up","Left",1,"FF","FL",5,"up",525,1,"Students06"
17,0.420666694641113,0.507242441177368,-37.5739402770996,137.037292480469,43.0409088134766,167.001,2227.994,1114.996,"Pictures_Onset",1178.996,"06","Salty",6,40,60,1,"no","up","Left",1,"FF","FL",5,"up",525,1,"Students06"
17,0.415800034999847,0.504377722740173,-39.9284439086914,137.740875244141,43.2975540161133,232,2711.002,1598.004,"Pictures_Onset",1662.004,"06","Salty",6,40,60,1,"no","up","Left",1,"FF","FL",5,"up",525,1,"Students06"
18,0.402733325958252,0.497066676616669,-46.1493301391602,139.600662231445,43.9723320007324,150.004,1256.998,216,"Pictures_Onset",208,"06","Healthy",6,40,60,2,"no","up","Left",0,"FL","FF",5,"up",564,1,"Students06"
18,0.368629604578018,0.483407378196716,-62.3770332336426,143.076309204102,45.2366676330566,133.005,1456.998,416,"Pictures_Onset",408,"06","Healthy",6,40,60,2,"no","up","Left",0,"FL","FF",5,"up",564,1,"Students06"
18,0.35464283823967,0.47795245051384,-69.0511932373047,144.386413574219,45.7140464782715,216,1624,583.002,"Pictures_Onset",575.002,"06","Healthy",6,40,60,2,"no","up","Left",0,"FL","FF",5,"up",564,1,"Students06"
18,0.630025625228882,0.504564166069031,62.3525657653809,137.725128173828,43.2905120849609,199.002,1922.995,881.997,"Pictures_Onset",873.997,"06","Salty",6,40,60,2,"no","up","Left",0,"FL","FF",5,"up",564,1,"Students06"
18,0.638575732707977,0.490757554769516,66.3409118652344,141.166366577148,44.5439414978027,166.003,2404.992,1363.994,"Pictures_Onset",1355.994,"06","Salty",6,40,60,2,"no","up","Left",0,"FL","FF",5,"up",564,1,"Students06"
18,0.603277802467346,0.493027776479721,49.5324974060059,140.624710083008,44.3455543518066,182.004,2621.99,1580.992,"Pictures_Onset",1572.992,"06","Salty",6,40,60,2,"no","up","Left",0,"FL","FF",5,"up",564,1,"Students06"
19,0.588424265384674,0.492212116718292,42.4293937683105,140.814559936523,44.4136390686035,166.003,2330.995,1297.997,"Pictures_Onset",1281.997,"06","Healthy",6,40,60,3,"no","down","Right",0,"FF","FL",5,"down",659,1,"Students06"
19,0.629666686058044,0.475035071372986,62.1291236877441,145.150344848633,45.993335723877,300.006,2545.997,1512.999,"Pictures_Onset",1496.999,"06","Healthy",6,40,60,3,"no","down","Right",0,"FF","FL",5,"down",659,1,"Students06"
20,0.445578932762146,0.496859639883041,-25.6675472259521,139.611923217773,43.9770202636719,300.007,1314.995,282.995,"Pictures_Onset",265.997,"06","Healthy",6,40,60,4,"no","down","Right",1,"FL","FF",5,"down",676,1,"Students06"
20,0.388799995183945,0.501633286476135,-52.7626647949219,138.403656005859,43.5366668701172,150.003,1664,632,"Pictures_Onset",615.002,"06","Healthy",6,40,60,4,"no","down","Right",1,"FL","FF",5,"down",676,1,"Students06"
20,0.620583355426788,0.503583312034607,57.8095855712891,137.900421142578,43.3525009155273,117.005,2064,1032,"Pictures_Onset",1015.002,"06","Salty",6,40,60,4,"no","down","Right",1,"FL","FF",5,"down",676,1,"Students06"
20,0.62520831823349,0.500750005245209,60.0595779418945,138.676254272461,43.6354179382324,115.994,2214.003,1182.003,"Pictures_Onset",1165.005,"06","Salty",6,40,60,4,"no","down","Right",1,"FL","FF",5,"down",676,1,"Students06"
21,0.407500028610229,0.475099980831146,-43.8673324584961,145.108657836914,45.9786682128906,150.003,1274.995,249.997,"Pictures_Onset",225.997,"06","Salty",6,40,60,2,"no","down","Left",1,"FF","FL",6,"down",394,1,"Students06"
21,0.376275360584259,0.475304365158081,-58.7078285217285,145.081161499023,45.9684066772461,365.005,1474.995,449.997,"Pictures_Onset",425.997,"06","Salty",6,40,60,2,"no","down","Left",1,"FF","FL",6,"down",394,1,"Students06"
21,0.641250014305115,0.468611121177673,67.6756973266602,146.773330688477,46.5852813720703,383.002,1973.99,948.992,"Pictures_Onset",924.992,"06","Healthy",6,40,60,2,"no","down","Left",1,"FF","FL",6,"down",394,1,"Students06"
21,0.572733283042908,0.487266689538956,35.0019950866699,142.023666381836,44.8553352355957,150.003,2572.992,1547.994,"Pictures_Onset",1523.994,"06","Healthy",6,40,60,2,"no","down","Left",1,"FF","FL",6,"down",394,1,"Students06"
22,0.607899963855743,0.486699998378754,51.7479972839355,142.176010131836,44.9109992980957,148.992,1241.011,217.011,"Pictures_Onset",192.013,"06","Salty",6,40,60,3,"no","down","Left",0,"FL","FF",6,"down",405,1,"Students06"
22,0.386466681957245,0.475833266973495,-53.8686637878418,144.952346801758,45.9216651916504,149.991,1457.011,433.011,"Pictures_Onset",408.013,"06","Healthy",6,40,60,3,"no","down","Left",0,"FL","FF",6,"down",405,1,"Students06"
22,0.367484867572784,0.472454518079758,-62.930606842041,145.795761108398,46.2278785705566,165.99,1640.013,616.013,"Pictures_Onset",591.015,"06","Healthy",6,40,60,3,"no","down","Left",0,"FL","FF",6,"down",405,1,"Students06"
22,0.633833348751068,0.499222189188004,64.1383285522461,139.069183349609,43.7805519104004,182.989,2056.013,1032.013,"Pictures_Onset",1007.015,"06","Salty",6,40,60,3,"no","down","Left",0,"FL","FF",6,"down",405,1,"Students06"
22,0.645921587944031,0.481921523809433,69.8611679077148,143.41764831543,45.360782623291,266.995,2289.011,1265.011,"Pictures_Onset",1240.013,"06","Salty",6,40,60,3,"no","down","Left",0,"FL","FF",6,"down",405,1,"Students06"
22,0.623416721820831,0.482083350419998,59.1277770996094,143.356674194336,45.3422241210938,181.991,2689.011,1665.011,"Pictures_Onset",1640.013,"06","Salty",6,40,60,3,"no","down","Left",0,"FL","FF",6,"down",405,1,"Students06"
23,0.394444465637207,0.501444399356842,-50.0833358764648,138.495178222656,43.5688896179199,134.003,1274.995,248,"Pictures_Onset",225.997,"06","Salty",6,40,60,4,"no","up","Right",0,"FF","FL",6,"up",428,1,"Students06"
23,0.369625002145767,0.495791673660278,-61.9320831298828,139.923751831055,44.091667175293,117.005,1441.997,415.002,"Pictures_Onset",392.999,"06","Salty",6,40,60,4,"no","up","Right",0,"FF","FL",6,"up",428,1,"Students06"
23,0.348972231149673,0.507888853549957,-71.7547225952148,136.899719238281,42.9897193908691,183.001,1691.994,664.999,"Pictures_Onset",642.996,"06","Salty",6,40,60,4,"no","up","Right",0,"FF","FL",6,"up",428,1,"Students06"
23,0.625512778759003,0.479179501533508,60.1623153686523,144.114608764648,45.6174354553223,199.002,2008.998,982.003,"Pictures_Onset",960,"06","Healthy",6,40,60,4,"no","up","Right",0,"FF","FL",6,"up",428,1,"Students06"
23,0.642033338546753,0.480933368206024,67.9976654052734,143.660339355469,45.4499969482422,149.005,2241.997,1215.002,"Pictures_Onset",1192.999,"06","Healthy",6,40,60,4,"no","up","Right",0,"FF","FL",6,"up",428,1,"Students06"
23,0.375375002622604,0.489729195833206,-59.1237525939941,141.446258544922,44.645206451416,250.01,2556.992,1529.997,"Pictures_Onset",1507.994,"06","Salty",6,40,60,4,"no","up","Right",0,"FF","FL",6,"up",428,1,"Students06"
23,0.340750008821487,0.501416683197021,-75.7275009155273,138.499588012695,43.5720863342285,115.994,2856.998,1830.003,"Pictures_Onset",1808,"06","Salty",6,40,60,4,"no","up","Right",0,"FF","FL",6,"up",428,1,"Students06"
24,0.397100031375885,0.491466671228409,-48.7366676330566,141.013656616211,44.4866714477539,150.003,1329.997,298.995,"Pictures_Onset",280.999,"06","Healthy",6,40,60,1,"no","up","Right",1,"FL","FF",6,"up",517,1,"Students06"
24,0.373266667127609,0.476111143827438,-60.2120018005371,144.83576965332,45.8791084289551,232,1513.997,482.995,"Pictures_Onset",464.999,"06","Healthy",6,40,60,1,"no","up","Right",1,"FL","FF",6,"up",517,1,"Students06"
24,0.578833401203156,0.494133323431015,37.8100051879883,140.388336181641,44.2603340148926,150.003,1828.992,797.99,"Pictures_Onset",779.994,"06","Salty",6,40,60,1,"no","up","Right",1,"FL","FF",6,"up",517,1,"Students06"
24,0.614375054836273,0.496999949216843,54.8255500793457,139.593612670898,43.9706993103027,383.001,2011.994,980.992,"Pictures_Onset",962.996,"06","Salty",6,40,60,1,"no","up","Right",1,"FL","FF",6,"up",517,1,"Students06"
26,0.397166639566422,0.510472238063812,-48.7675018310547,136.233047485352,42.7486114501953,184,1317.005,298.995,"Pictures_Onset",268.007,"06","Healthy",6,40,60,4,"no","down","Left",0,"FL","FF",7,"down",498,1,"Students06"
26,0.588952422142029,0.492047607898712,42.6995239257812,140.823333740234,44.418571472168,101.005,1766.003,747.993,"Pictures_Onset",717.005,"06","Salty",6,40,60,4,"no","down","Left",0,"FL","FF",7,"down",498,1,"Students06"
26,0.613545417785645,0.494454562664032,54.4242401123047,140.288787841797,44.225757598877,165.991,1900.006,881.996,"Pictures_Onset",851.008,"06","Salty",6,40,60,4,"no","down","Left",0,"FL","FF",7,"down",498,1,"Students06"
26,0.416999995708466,0.509999930858612,-39.297664642334,136.343002319336,42.7893295288086,149.005,2150.003,1131.993,"Pictures_Onset",1101.005,"06","Healthy",6,40,60,4,"no","down","Left",0,"FL","FF",7,"down",498,1,"Students06"
26,0.552694499492645,0.50508326292038,25.4141635894775,137.596939086914,43.2433319091797,183.002,2382.003,1363.993,"Pictures_Onset",1333.005,"06","Salty",6,40,60,4,"no","down","Left",0,"FL","FF",7,"down",498,1,"Students06"
27,0.386361092329025,0.497527807950974,-53.8911094665527,139.459167480469,43.9222221374512,182.989,1341.005,316.007,"Pictures_Onset",292.007,"06","Salty",6,40,60,1,"no","up","Right",0,"FF","FL",7,"up",417,1,"Students06"
27,0.372916668653488,0.487035691738129,-60.3191719055176,142.123092651367,44.8920288085938,448.999,1558.003,533.005,"Pictures_Onset",509.005,"06","Salty",6,40,60,1,"no","up","Right",0,"FF","FL",7,"up",417,1,"Students06"
27,0.622999966144562,0.502368450164795,58.9242134094238,138.252105712891,43.4831619262695,299.008,2090.995,1065.997,"Pictures_Onset",1041.997,"06","Healthy",6,40,60,1,"no","up","Right",0,"FF","FL",7,"up",417,1,"Students06"
27,0.384966671466827,0.490600019693375,-54.6193351745605,141.219818115234,44.5629959106445,315.994,2472.998,1448,"Pictures_Onset",1424,"06","Salty",6,40,60,1,"no","up","Right",0,"FF","FL",7,"up",417,1,"Students06"
27,0.625500023365021,0.492958337068558,60.1599998474121,140.651672363281,44.3574981689453,117.005,2872,1847.002,"Pictures_Onset",1823.002,"06","Healthy",6,40,60,1,"no","up","Right",0,"FF","FL",7,"up",417,1,"Students06"
28,0.405111104249954,0.496703743934631,-44.9940719604492,139.675552368164,44.0025939941406,134.004,1256.998,232.998,"Pictures_Onset",208,"06","Healthy",6,40,60,2,"no","up","Right",1,"FL","FF",7,"up",533,1,"Students06"
28,0.37593936920166,0.494545429944992,-58.9160614013672,140.255462646484,44.2115135192871,167.002,1440,416,"Pictures_Onset",391.002,"06","Healthy",6,40,60,2,"no","up","Right",1,"FL","FF",7,"up",533,1,"Students06"
28,0.359261900186539,0.509428560733795,-66.8804779052734,136.461410522461,42.8307113647461,216.998,1639.002,615.002,"Pictures_Onset",590.004,"06","Healthy",6,40,60,2,"no","up","Right",1,"FL","FF",7,"up",533,1,"Students06"
28,0.626030325889587,0.482727259397507,60.3906021118164,143.195770263672,45.2824249267578,166.003,1955.994,931.994,"Pictures_Onset",906.996,"06","Salty",6,40,60,2,"no","up","Right",1,"FL","FF",7,"up",533,1,"Students06"
28,0.64171427488327,0.473619043827057,67.8214263916016,145.504287719727,46.1240463256836,216,2155.994,1131.994,"Pictures_Onset",1106.996,"06","Salty",6,40,60,2,"no","up","Right",1,"FL","FF",7,"up",533,1,"Students06"
28,0.660454511642456,0.490287899971008,76.7765121459961,141.304229736328,44.5936317443848,349.005,2404.992,1380.992,"Pictures_Onset",1355.994,"06","Salty",6,40,60,2,"no","up","Right",1,"FL","FF",7,"up",533,1,"Students06"
29,0.392861127853394,0.5046666264534,-50.8552742004395,137.696395874023,43.2808380126953,182.003,1282.995,249.997,"Pictures_Onset",233.997,"06","Salty",6,40,60,4,"no","down","Left",1,"FF","FL",8,"down",396,1,"Students06"
29,0.370684176683426,0.49380698800087,-61.4335098266602,140.433502197266,44.2778930664062,299.008,1498.995,465.997,"Pictures_Onset",449.997,"06","Salty",6,40,60,4,"no","down","Left",1,"FF","FL",8,"down",396,1,"Students06"
29,0.624462962150574,0.485407412052155,59.6109199523926,142.540191650391,45.0438919067383,282.009,1881.997,848.999,"Pictures_Onset",832.999,"06","Healthy",6,40,60,4,"no","down","Left",1,"FF","FL",8,"down",396,1,"Students06"
29,0.364666700363159,0.477766662836075,-64.3089981079102,144.469665527344,45.7473335266113,150.003,2347.994,1314.996,"Pictures_Onset",1298.996,"06","Salty",6,40,60,4,"no","down","Left",1,"FF","FL",8,"down",396,1,"Students06"
29,0.318413347005844,0.512706577777863,-86.3433227539062,135.678665161133,42.5456008911133,397.991,2548.006,1515.008,"Pictures_Onset",1499.008,"06","Salty",6,40,60,4,"no","down","Left",1,"FF","FL",8,"down",396,1,"Students06"
30,0.388600021600723,0.506633341312408,-52.8599967956543,137.15234375,43.083667755127,149.005,1265.997,232.999,"Pictures_Onset",216.999,"06","Healthy",6,40,60,1,"no","down","Left",0,"FL","FF",8,"up",422,0,"Students06"
30,0.366629630327225,0.501111149787903,-63.3199996948242,138.574447631836,43.6018524169922,133.005,1448.998,416,"Pictures_Onset",400,"06","Healthy",6,40,60,1,"no","down","Left",0,"FL","FF",8,"up",422,0,"Students06"
30,0.342746049165726,0.491587281227112,-74.7917404174805,140.976516723633,44.4742851257324,332.992,1615.002,582.004,"Pictures_Onset",566.004,"06","Healthy",6,40,60,1,"no","down","Left",0,"FL","FF",8,"up",422,0,"Students06"
30,0.395055562257767,0.497416645288467,-49.8358345031738,139.521408081055,43.9436073303223,182.003,2015.002,982.004,"Pictures_Onset",966.004,"06","Healthy",6,40,60,1,"no","down","Left",0,"FL","FF",8,"up",422,0,"Students06"
30,0.626472175121307,0.504472255706787,60.6252784729004,137.771377563477,43.3063926696777,184,2480,1447.002,"Pictures_Onset",1431.002,"06","Salty",6,40,60,1,"no","down","Left",0,"FL","FF",8,"up",422,0,"Students06"
31,0.40923073887825,0.487692326307297,-42.9907646179199,141.960266113281,44.83154296875,200,1461.99,200,"Pictures_Onset",412.992,"06","Salty",6,40,60,2,"no","up","Right",0,"FF","FL",8,"up",1284,1,"Students06"
31,0.403499990701675,0.486333310604095,-45.6762466430664,142.28874206543,44.9524993896484,116.992,1695.002,433.012,"Pictures_Onset",646.004,"06","Salty",6,40,60,2,"no","up","Right",0,"FF","FL",8,"up",1284,1,"Students06"
31,0.382037043571472,0.469925940036774,-55.9977798461914,146.459274291992,46.4700012207031,133.005,1844.992,583.002,"Pictures_Onset",795.994,"06","Salty",6,40,60,2,"no","up","Right",0,"FF","FL",8,"up",1284,1,"Students06"
31,0.343866646289825,0.48686671257019,-74.2169952392578,142.151000976562,44.9016647338867,150.003,2026.995,765.005,"Pictures_Onset",977.997,"06","Salty",6,40,60,2,"no","up","Right",0,"FF","FL",8,"up",1284,1,"Students06"
31,0.627102553844452,0.476923108100891,60.9161567687988,144.707168579102,45.8320503234863,199.002,2260.992,999.002,"Pictures_Onset",1211.994,"06","Healthy",6,40,60,2,"no","up","Right",0,"FF","FL",8,"up",1284,1,"Students06"
31,0.649508833885193,0.477122813463211,71.5698318481445,144.615768432617,45.7984237670898,299.008,2493.99,1232,"Pictures_Onset",1444.992,"06","Healthy",6,40,60,2,"no","up","Right",0,"FF","FL",8,"up",1284,1,"Students06"
31,0.65192586183548,0.479666650295258,72.7444381713867,143.980377197266,45.5674095153809,133.005,2825.997,1564.007,"Pictures_Onset",1776.999,"06","Healthy",6,40,60,2,"no","up","Right",0,"FF","FL",8,"up",1284,1,"Students06"
32,0.395380973815918,0.481238037347794,-49.6490440368652,143.623336791992,45.439525604248,216.998,1743.002,714.996,"Pictures_Onset",694.004,"06","Healthy",6,40,60,3,"no","up","Right",1,"FL","FF",8,"up",447,1,"Students06"
33,0.385866641998291,0.504199981689453,-54.1883316040039,137.769989013672,43.3073348999023,149.005,1274.995,250.995,"Pictures_Onset",225.997,"06","Salty",6,40,60,1,"no","down","Left",1,"FF","FL",9,"down",540,1,"Students06"
33,0.365222215652466,0.494749993085861,-64.0263824462891,140.193054199219,44.1883354187012,183.002,1456.998,432.998,"Pictures_Onset",408,"06","Salty",6,40,60,1,"no","down","Left",1,"FF","FL",9,"down",540,1,"Students06"
33,0.624564170837402,0.484794825315475,59.6553802490234,142.678451538086,45.0925674438477,200.013,1789.99,765.99,"Pictures_Onset",740.992,"06","Healthy",6,40,60,1,"no","down","Left",1,"FF","FL",9,"down",540,1,"Students06"
33,0.362242430448532,0.532727301120758,-65.4142379760742,130.607284545898,40.6996994018555,166.003,2122.995,1098.995,"Pictures_Onset",1073.997,"06","Salty",6,40,60,1,"no","down","Left",1,"FF","FL",9,"down",540,1,"Students06"
33,0.33433336019516,0.524666607379913,-78.7266693115234,132.652969360352,41.445182800293,133.005,2322.995,1298.995,"Pictures_Onset",1273.997,"06","Salty",6,40,60,1,"no","down","Left",1,"FF","FL",9,"down",540,1,"Students06"
33,0.370583355426788,0.49001669883728,-61.4244995117188,141.362838745117,44.6144981384277,314.995,2505.997,1481.997,"Pictures_Onset",1456.999,"06","Salty",6,40,60,1,"no","down","Left",1,"FF","FL",9,"down",540,1,"Students06"
33,0.375666677951813,0.473624974489212,-58.9508323669434,145.508346557617,46.122917175293,115.993,2855.002,1831.002,"Pictures_Onset",1806.004,"06","Salty",6,40,60,1,"no","down","Left",1,"FF","FL",9,"down",540,1,"Students06"
34,0.386511147022247,0.478533357381821,-53.8880043029785,144.279998779297,45.6766700744629,232.999,1292.006,266.009,"Pictures_Onset",243.008,"06","Healthy",6,40,60,2,"no","down","Left",0,"FL","FF",9,"down",458,1,"Students06"
34,0.627851843833923,0.463962972164154,61.2625923156738,147.902587890625,46.9929618835449,133.005,1608,582.003,"Pictures_Onset",559.002,"06","Salty",6,40,60,2,"no","down","Left",0,"FL","FF",9,"down",458,1,"Students06"
34,0.62797623872757,0.505333364009857,61.2766609191895,137.526184082031,43.218334197998,216,1941.005,915.008,"Pictures_Onset",892.007,"06","Salty",6,40,60,2,"no","down","Left",0,"FL","FF",9,"down",458,1,"Students06"
34,0.656632125377655,0.478988528251648,75.0052947998047,144.160598754883,45.633674621582,465.996,2207.002,1181.005,"Pictures_Onset",1158.004,"06","Salty",6,40,60,2,"no","down","Left",0,"FL","FF",9,"down",458,1,"Students06"
34,0.629454553127289,0.482030302286148,62.0469741821289,143.383636474609,45.3481826782227,167.001,2705.997,1680,"Pictures_Onset",1656.999,"06","Salty",6,40,60,2,"no","down","Left",0,"FL","FF",9,"down",458,1,"Students06"
35,0.393999963998795,0.503181874752045,-50.2560653686523,138.020904541016,43.3993911743164,166.003,2073.997,1048.999,"Pictures_Onset",1024.999,"06","Salty",6,40,60,3,"no","up","Right",0,"FF","FL",9,"up",476,1,"Students06"
35,0.630270838737488,0.47160416841507,62.4087448120117,146.011871337891,46.3068771362305,248.999,2456.998,1432,"Pictures_Onset",1408,"06","Healthy",6,40,60,3,"no","up","Right",0,"FF","FL",9,"up",476,1,"Students06"
35,0.643250048160553,0.473222225904465,68.6319427490234,145.588607788086,46.1530494689941,183.002,2738.995,1713.997,"Pictures_Onset",1689.997,"06","Healthy",6,40,60,3,"no","up","Right",0,"FF","FL",9,"up",476,1,"Students06"
36,0.390174597501755,0.495571494102478,-52.0900001525879,139.96110534668,44.1036491394043,333.004,1295.002,266.996,"Pictures_Onset",246.004,"06","Healthy",6,40,60,4,"no","up","Right",1,"FL","FF",9,"up",511,1,"Students06"
36,0.38955557346344,0.492444455623627,-52.3411102294922,140.770736694336,44.3992614746094,133.005,1661.005,632.999,"Pictures_Onset",612.007,"06","Healthy",6,40,60,4,"no","up","Right",1,"FL","FF",9,"up",511,1,"Students06"
36,0.587733328342438,0.493233293294907,42.0929985046387,140.59765625,44.3366661071777,150.003,1877.005,848.999,"Pictures_Onset",828.007,"06","Salty",6,40,60,4,"no","up","Right",1,"FL","FF",9,"up",511,1,"Students06"
36,0.396666675806046,0.502666652202606,-49.0579948425293,138.212677001953,43.468334197998,150.004,2392.998,1364.992,"Pictures_Onset",1344,"06","Healthy",6,40,60,4,"no","up","Right",1,"FL","FF",9,"up",511,1,"Students06"
36,0.608575761318207,0.50375759601593,52.0545501708984,137.925765991211,43.3639373779297,166.004,2808.998,1780.992,"Pictures_Onset",1760,"06","Salty",6,40,60,4,"no","up","Right",1,"FL","FF",9,"up",511,1,"Students06"
37,0.392948746681213,0.492435902357101,-50.7346115112305,140.750762939453,44.3917922973633,199.001,1275.994,248.999,"Pictures_Onset",226.996,"06","Salty",6,40,60,2,"no","down","Left",1,"FF","FL",10,"down",501,1,"Students06"
37,0.371766656637192,0.470199972391129,-60.958667755127,146.359329223633,46.4343338012695,149.991,1526.003,499.008,"Pictures_Onset",477.005,"06","Salty",6,40,60,2,"no","down","Left",1,"FF","FL",10,"down",501,1,"Students06"
37,0.620611131191254,0.475888848304749,57.7836151123047,144.935272216797,45.9144477844238,183.002,1758.003,731.008,"Pictures_Onset",709.005,"06","Healthy",6,40,60,2,"no","down","Left",1,"FF","FL",10,"down",501,1,"Students06"
37,0.646466672420502,0.482799977064133,70.0908889770508,143.157562255859,45.2675552368164,232.998,1975.002,948.007,"Pictures_Onset",926.004,"06","Healthy",6,40,60,2,"no","down","Left",1,"FF","FL",10,"down",501,1,"Students06"
37,0.641036987304688,0.513870358467102,67.4983291625977,135.389633178711,42.4416656494141,132.992,2408,1381.005,"Pictures_Onset",1359.002,"06","Healthy",6,40,60,2,"no","down","Left",1,"FF","FL",10,"down",501,1,"Students06"
37,0.624311089515686,0.505688905715942,59.544002532959,137.416900634766,43.1777801513672,232.999,2574.003,1547.008,"Pictures_Onset",1525.005,"06","Healthy",6,40,60,2,"no","down","Left",1,"FF","FL",10,"down",501,1,"Students06"
38,0.392757594585419,0.492090910673141,-50.9306030273438,140.871215820312,44.4360580444336,167.001,1299.994,265.997,"Pictures_Onset",250.996,"06","Healthy",6,40,60,3,"no","down","Left",0,"FL","FF",10,"down",366,1,"Students06"
38,0.369222193956375,0.487177819013596,-62.0380058288574,142.066665649414,44.8704414367676,232.998,1499.994,465.997,"Pictures_Onset",450.996,"06","Healthy",6,40,60,3,"no","down","Left",0,"FL","FF",10,"down",366,1,"Students06"
38,0.353900015354156,0.499233335256577,-69.4203338623047,139.052673339844,43.7746696472168,150.004,1765.99,731.993,"Pictures_Onset",716.992,"06","Healthy",6,40,60,3,"no","down","Left",0,"FL","FF",10,"down",366,1,"Students06"
38,0.633999943733215,0.482088893651962,64.1626739501953,143.369323730469,45.3448905944824,232.998,1999.002,965.005,"Pictures_Onset",950.004,"06","Salty",6,40,60,3,"no","down","Left",0,"FL","FF",10,"down",366,1,"Students06"
38,0.616280734539032,0.479403495788574,55.660530090332,144.074371337891,45.6014060974121,298.996,2264.998,1231.001,"Pictures_Onset",1216,"06","Salty",6,40,60,3,"no","down","Left",0,"FL","FF",10,"down",366,1,"Students06"
38,0.613972187042236,0.470499992370605,54.6655578613281,146.276397705078,46.4033355712891,184.013,2597.99,1563.993,"Pictures_Onset",1548.992,"06","Salty",6,40,60,3,"no","down","Left",0,"FL","FF",10,"down",366,1,"Students06"
38,0.639333367347717,0.467066705226898,66.7596588134766,147.150665283203,46.7206649780273,149.99,2831.002,1797.005,"Pictures_Onset",1782.004,"06","Salty",6,40,60,3,"no","down","Left",0,"FL","FF",10,"down",366,1,"Students06"
39,0.388566672801971,0.500033318996429,-52.8910026550293,138.846008300781,43.6986618041992,149.005,1245.005,216.999,"Pictures_Onset",196.007,"06","Salty",6,40,60,4,"no","up","Right",0,"FF","FL",10,"up",544,1,"Students06"
39,0.363743633031845,0.487846195697784,-64.7651214599609,141.950531005859,44.8287162780762,200,1444.006,416,"Pictures_Onset",395.008,"06","Salty",6,40,60,4,"no","up","Right",0,"FF","FL",10,"up",544,1,"Students06"
39,0.619500041007996,0.502708315849304,57.2708396911621,138.172698974609,43.4537467956543,248.998,1727.002,698.996,"Pictures_Onset",678.004,"06","Healthy",6,40,60,4,"no","up","Right",0,"FF","FL",10,"up",544,1,"Students06"
39,0.63606059551239,0.500696897506714,65.1321258544922,138.665634155273,43.6331825256348,350.003,2009.997,981.991,"Pictures_Onset",960.999,"06","Healthy",6,40,60,4,"no","up","Right",0,"FF","FL",10,"up",544,1,"Students06"
40,0.408428519964218,0.506738126277924,-43.391185760498,137.144515991211,43.0804748535156,216.998,1303.002,265.997,"Pictures_Onset",254.004,"06","Healthy",6,40,60,1,"no","up","Right",1,"FL","FF",10,"up",529,1,"Students06"
42,0.393291652202606,0.500458300113678,-50.6364555358887,138.724166870117,43.6550025939941,249.997,1304.998,281.996,"Pictures_Onset",256,"06","Healthy",6,40,60,4,"no","up","Left",0,"FL","FS",11,"up",509,1,"Students06"
43,0.588435888290405,0.500333309173584,42.4158973693848,138.760513305664,43.6678237915039,416.998,1029.005,0,"Pictures_Onset",-19.9929999999999,"06","Healthy",6,40,60,1,"no","down","Right",0,"FS","FL",11,"up",482,0,"Students06"
43,0.396075755357742,0.499666661024094,-49.2930297851562,138.918197631836,43.7252998352051,350.004,1528.998,499.993,"Pictures_Onset",480,"06","Sugary",6,40,60,1,"no","down","Right",0,"FS","FL",11,"up",482,0,"Students06"
43,0.372733324766159,0.491366684436798,-60.4169998168945,141.059661865234,44.5046653747559,150.003,2177.997,1148.992,"Pictures_Onset",1128.999,"06","Sugary",6,40,60,1,"no","down","Right",0,"FS","FL",11,"up",482,0,"Students06"
43,0.367047637701035,0.524952352046967,-63.0878562927246,132.57405090332,41.4169044494629,216,2360.998,1331.993,"Pictures_Onset",1312,"06","Sugary",6,40,60,1,"no","down","Right",0,"FS","FL",11,"up",482,0,"Students06"
43,0.367078453302383,0.534921646118164,-63.1403884887695,130.068237304688,40.503532409668,266.01,2610.995,1581.99,"Pictures_Onset",1561.997,"06","Sugary",6,40,60,1,"no","down","Right",0,"FS","FL",11,"up",482,0,"Students06"
44,0.408484846353531,0.4864242374897,-43.4163627624512,142.289688110352,44.9536361694336,167.002,1250.995,216,"Pictures_Onset",201.997,"06","Healthy",6,40,60,2,"no","down","Right",1,"FL","FS",11,"down",449,1,"Students06"
44,0.38591668009758,0.488708317279816,-54.2191619873047,141.697082519531,44.7370796203613,117.005,1450.995,416,"Pictures_Onset",401.997,"06","Healthy",6,40,60,2,"no","down","Right",1,"FL","FS",11,"down",449,1,"Students06"
44,0.628148138523102,0.478296279907227,61.4048194885254,144.312225341797,45.6877784729004,134.003,1633.997,599.002,"Pictures_Onset",584.999,"06","Sugary",6,40,60,2,"no","down","Right",1,"FL","FS",11,"down",449,1,"Students06"
44,0.635740756988525,0.474111080169678,65.0503768920898,145.398880004883,46.0837059020996,133.005,1866.995,832,"Pictures_Onset",817.997,"06","Sugary",6,40,60,2,"no","down","Right",1,"FL","FS",11,"down",449,1,"Students06"
44,0.391083359718323,0.492805570363998,-51.6263885498047,140.662796020508,44.359447479248,183.002,2332.992,1297.997,"Pictures_Onset",1283.994,"06","Healthy",6,40,60,2,"no","down","Right",1,"FL","FS",11,"down",449,1,"Students06"
44,0.393866628408432,0.492844462394714,-50.3535537719727,140.677780151367,44.3648872375488,232,2550.003,1515.008,"Pictures_Onset",1501.005,"06","Healthy",6,40,60,2,"no","down","Right",1,"FL","FS",11,"down",449,1,"Students06"
45,0.40969443321228,0.512472212314606,-42.7719421386719,135.689163208008,42.5486106872559,184,2743.002,1714.01,"Pictures_Onset",1694.004,"06","Sugary",6,40,60,4,"no","up","Left",1,"FS","FL",12,"up",621,1,"Students06"
46,0.593727350234985,0.506515145301819,44.9645462036133,137.212738037109,43.104850769043,167.002,1280.998,249.996,"Pictures_Onset",232,"06","Sugary",6,40,60,1,"no","up","Left",0,"FL","FS",12,"up",489,1,"Students06"
46,0.613303005695343,0.485848516225815,54.3466644287109,142.434539794922,45.0051536560059,166.004,1480.998,449.996,"Pictures_Onset",432,"06","Sugary",6,40,60,1,"no","up","Left",0,"FL","FS",12,"up",489,1,"Students06"
46,0.383800029754639,0.501050055027008,-55.1168327331543,138.574005126953,43.5996704101562,315.994,1712.998,681.996,"Pictures_Onset",664,"06","Healthy",6,40,60,1,"no","up","Left",0,"FL","FS",12,"up",489,1,"Students06"
46,0.365111082792282,0.519600033760071,-64.0535583496094,133.932891845703,41.9095573425293,233.997,2062.003,1031.001,"Pictures_Onset",1013.005,"06","Healthy",6,40,60,1,"no","up","Left",0,"FL","FS",12,"up",489,1,"Students06"
46,0.612312495708466,0.483708322048187,53.8352127075195,142.94270324707,45.1897926330566,249.997,2378.995,1347.993,"Pictures_Onset",1329.997,"06","Sugary",6,40,60,1,"no","up","Left",0,"FL","FS",12,"up",489,1,"Students06"
47,0.387250006198883,0.492708325386047,-53.4758338928223,140.72248840332,44.3812484741211,116.006,1308.992,282.995,"Pictures_Onset",259.994,"06","Sugary",6,40,60,2,"no","down","Right",0,"FS","FL",12,"down",452,1,"Students06"
47,0.357874989509583,0.462458312511444,-67.5429153442383,148.316665649414,47.1464614868164,249.997,1542.003,516.006,"Pictures_Onset",493.005,"06","Sugary",6,40,60,2,"no","down","Right",0,"FS","FL",12,"down",452,1,"Students06"
47,0.618102610111237,0.470717966556549,56.5966644287109,146.266403198242,46.4000015258789,199.002,1924.992,898.995,"Pictures_Onset",875.994,"06","Healthy",6,40,60,2,"no","down","Right",0,"FS","FL",12,"down",452,1,"Students06"
47,0.583925902843475,0.481518536806107,40.3137054443359,143.508895874023,45.396297454834,132.006,2523.994,1497.997,"Pictures_Onset",1474.996,"06","Healthy",6,40,60,2,"no","down","Right",0,"FS","FL",12,"down",452,1,"Students06"
47,0.631333351135254,0.493230789899826,62.9097442626953,140.57795715332,44.3299980163574,199.002,2706.995,1680.998,"Pictures_Onset",1657.997,"06","Healthy",6,40,60,2,"no","down","Right",0,"FS","FL",12,"down",452,1,"Students06"
48,0.394699990749359,0.493800014257431,-49.9903335571289,140.415008544922,44.2693290710449,149.004,1371.994,350.004,"Pictures_Onset",322.996,"06","Healthy",6,40,60,3,"no","down","Right",1,"FL","FS",12,"down",405,1,"Students06"
48,0.36433333158493,0.486100018024445,-64.4173355102539,142.393325805664,44.9903335571289,150.003,1570.995,549.005,"Pictures_Onset",521.997,"06","Healthy",6,40,60,3,"no","down","Right",1,"FL","FS",12,"down",405,1,"Students06"
48,0.621755540370941,0.472733348608017,58.327995300293,145.701324462891,46.1931114196777,233.997,1786.995,765.005,"Pictures_Onset",737.997,"06","Sugary",6,40,60,3,"no","down","Right",1,"FL","FS",12,"down",405,1,"Students06"
48,0.633272707462311,0.461363673210144,63.8327369689941,148.599685668945,47.2490882873535,166.004,2053.99,1032,"Pictures_Onset",1004.992,"06","Sugary",6,40,60,3,"no","down","Right",1,"FL","FS",12,"down",405,1,"Students06"
48,0.376444429159164,0.496083289384842,-58.6586151123047,139.875,44.0722236633301,183.001,2286.989,1264.999,"Pictures_Onset",1237.991,"06","Healthy",6,40,60,3,"no","down","Right",1,"FL","FS",12,"down",405,1,"Students06"
48,0.604200005531311,0.487399995326996,49.9935531616211,142.019332885742,44.8531150817871,232.999,2552.998,1531.008,"Pictures_Onset",1504,"06","Sugary",6,40,60,3,"no","down","Right",1,"FL","FS",12,"down",405,1,"Students06"
48,0.431166648864746,0.499374985694885,-32.5499992370605,139.004165649414,43.7558364868164,117.005,2868.992,1847.002,"Pictures_Onset",1819.994,"06","Healthy",6,40,60,3,"no","down","Right",1,"FL","FS",12,"down",405,1,"Students06"
49,0.616484880447388,0.497969716787338,55.8266716003418,139.364852905273,43.8869743347168,166.003,1257.997,232.999,"Pictures_Onset",208.999,"06","Healthy",6,40,60,1,"no","up","Left",1,"FS","FL",13,"up",524,1,"Students06"
49,0.634833335876465,0.49889999628067,64.5376739501953,139.158996582031,43.8120040893555,150.004,1456.998,432,"Pictures_Onset",408,"06","Healthy",6,40,60,1,"no","up","Left",1,"FS","FL",13,"up",524,1,"Students06"
49,0.378287315368652,0.50790810585022,-57.8049354553223,136.857025146484,42.9756317138672,466.995,1689.997,664.999,"Pictures_Onset",640.999,"06","Sugary",6,40,60,1,"no","up","Left",1,"FS","FL",13,"up",524,1,"Students06"
49,0.377240747213364,0.463703691959381,-58.2225875854492,148.00407409668,47.0325965881348,283.008,2188.992,1163.994,"Pictures_Onset",1139.994,"06","Sugary",6,40,60,1,"no","up","Left",1,"FS","FL",13,"up",524,1,"Students06"
49,0.631824672222137,0.495210558176041,63.1984214782715,140.051071166992,44.138240814209,298.996,2672.998,1648,"Pictures_Onset",1624,"06","Healthy",6,40,60,1,"no","up","Left",1,"FS","FL",13,"up",524,1,"Students06"
50,0.393787860870361,0.489060580730438,-50.4396934509277,141.623046875,44.7096977233887,166.003,1242.995,216,"Pictures_Onset",193.997,"06","Healthy",6,40,60,2,"no","up","Left",0,"FL","FS",13,"up",485,1,"Students06"
50,0.36993333697319,0.488244414329529,-61.7793312072754,141.829574584961,44.7824440002441,232.998,1441.997,415.002,"Pictures_Onset",392.999,"06","Healthy",6,40,60,2,"no","up","Left",0,"FL","FS",13,"up",485,1,"Students06"
50,0.639380991458893,0.478214263916016,66.7459564208984,144.348831176758,45.7014350891113,216.999,1874.995,848,"Pictures_Onset",825.997,"06","Sugary",6,40,60,2,"no","up","Left",0,"FL","FS",13,"up",485,1,"Students06"
50,0.641060650348663,0.491696953773499,67.483024597168,140.930282592773,44.4554481506348,165.99,2125.005,1098.01,"Pictures_Onset",1076.007,"06","Sugary",6,40,60,2,"no","up","Left",0,"FL","FS",13,"up",485,1,"Students06"
50,0.647812485694885,0.496645897626877,70.8181228637695,139.711868286133,44.0147933959961,250.009,2323.994,1296.999,"Pictures_Onset",1274.996,"06","Sugary",6,40,60,2,"no","up","Left",0,"FL","FS",13,"up",485,1,"Students06"
50,0.382880955934525,0.50085711479187,-55.5980949401855,138.639053344727,43.6238098144531,216,2657.997,1631.002,"Pictures_Onset",1608.999,"06","Healthy",6,40,60,2,"no","up","Left",0,"FL","FS",13,"up",485,1,"Students06"
51,0.393909096717834,0.490939408540726,-50.3457641601562,141.135757446289,44.5318145751953,167.002,1302.003,283.008,"Pictures_Onset",253.005,"06","Sugary",6,40,60,3,"no","down","Right",0,"FS","FL",13,"down",370,1,"Students06"
51,0.372571468353271,0.493500024080276,-60.4552383422852,140.500946044922,44.3019065856934,216,1502.003,483.008,"Pictures_Onset",453.005,"06","Sugary",6,40,60,3,"no","down","Right",0,"FS","FL",13,"down",370,1,"Students06"
51,0.634259223937988,0.498092591762543,64.3137054443359,139.324630737305,43.8727760314941,284.007,1800.998,782.003,"Pictures_Onset",752,"06","Healthy",6,40,60,3,"no","down","Right",0,"FS","FL",13,"down",370,1,"Students06"
51,0.647254943847656,0.490019559860229,70.5029449462891,141.372940063477,44.6199989318848,265.997,2117.005,1098.01,"Pictures_Onset",1068.007,"06","Healthy",6,40,60,3,"no","down","Right",0,"FS","FL",13,"down",370,1,"Students06"
51,0.648520827293396,0.484145820140839,71.1281280517578,142.847702026367,45.1543731689453,250.995,2416,1397.005,"Pictures_Onset",1367.002,"06","Healthy",6,40,60,3,"no","down","Right",0,"FS","FL",13,"down",370,1,"Students06"
51,0.617490172386169,0.487960755825043,56.3252906799316,141.891189575195,44.8066711425781,265.997,2700.006,1681.011,"Pictures_Onset",1651.008,"06","Healthy",6,40,60,3,"no","down","Right",0,"FS","FL",13,"down",370,1,"Students06"
52,0.390555530786514,0.508296310901642,-51.9437065124512,136.728500366211,42.9277801513672,134.003,1264,232,"Pictures_Onset",215.002,"06","Healthy",6,40,60,4,"no","down","Right",1,"FL","FS",13,"down",444,1,"Students06"
52,0.38400000333786,0.502148151397705,-55.0455589294434,138.310562133789,43.5033378601074,282.995,1431.002,399.002,"Pictures_Onset",382.004,"06","Healthy",6,40,60,4,"no","down","Right",1,"FL","FS",13,"down",444,1,"Students06"
52,0.622750043869019,0.484249979257584,58.7677803039551,142.841110229492,45.152774810791,183.002,1880,848,"Pictures_Onset",831.002,"06","Sugary",6,40,60,4,"no","down","Right",1,"FL","FS",13,"down",444,1,"Students06"
52,0.561488926410675,0.495200037956238,29.593111038208,140.075332641602,44.1464424133301,232.999,2312.998,1280.998,"Pictures_Onset",1264,"06","Sugary",6,40,60,4,"no","down","Right",1,"FL","FS",13,"down",444,1,"Students06"
52,0.422512829303741,0.503051340579987,-36.7441024780273,138.090759277344,43.4238471984863,200,2629.005,1597.005,"Pictures_Onset",1580.007,"06","Healthy",6,40,60,4,"no","down","Right",1,"FL","FS",13,"down",444,1,"Students06"
53,0.391924262046814,0.495393931865692,-51.3156089782715,140.004089355469,44.1209106445312,166.003,1297.997,265.997,"Pictures_Onset",248.999,"06","Sugary",6,40,60,2,"no","up","Left",1,"FS","FL",14,"up",546,1,"Students06"
53,0.362916618585587,0.488972216844559,-65.1247177124023,141.67057800293,44.727222442627,184,1530.995,498.995,"Pictures_Onset",481.997,"06","Sugary",6,40,60,2,"no","up","Left",1,"FS","FL",14,"up",546,1,"Students06"
53,0.629238188266754,0.481333345174789,61.9477310180664,143.566070556641,45.416072845459,216.999,1964.006,932.006,"Pictures_Onset",915.008,"06","Healthy",6,40,60,2,"no","up","Left",1,"FS","FL",14,"up",546,1,"Students06"
53,0.63355952501297,0.484678596258163,64.0133285522461,142.734527587891,45.1164283752441,216.998,2213.005,1181.005,"Pictures_Onset",1164.007,"06","Healthy",6,40,60,2,"no","up","Left",1,"FS","FL",14,"up",546,1,"Students06"
53,0.403423011302948,0.489115446805954,-45.8157730102539,141.596420288086,44.6994857788086,200,2545.997,1513.997,"Pictures_Onset",1496.999,"06","Sugary",6,40,60,2,"no","up","Left",1,"FS","FL",14,"up",546,1,"Students06"
53,0.383743554353714,0.51192307472229,-55.202823638916,135.855895996094,42.6115379333496,200,2778.995,1746.995,"Pictures_Onset",1729.997,"06","Sugary",6,40,60,2,"no","up","Left",1,"FS","FL",14,"up",546,1,"Students06"
54,0.3868148624897,0.485222190618515,-53.6916656494141,142.57926940918,45.0561103820801,283.008,1293.99,264.998,"Pictures_Onset",244.992,"06","Healthy",6,40,60,3,"no","up","Left",0,"FL","FS",14,"up",453,1,"Students06"
54,0.378633320331573,0.476499974727631,-57.6023368835449,144.768661499023,45.8536643981934,150.003,1610.995,582.003,"Pictures_Onset",561.997,"06","Healthy",6,40,60,3,"no","up","Left",0,"FL","FS",14,"up",453,1,"Students06"
54,0.619361102581024,0.481499999761581,57.201114654541,143.508041381836,45.3952827453613,183.001,1843.994,815.002,"Pictures_Onset",794.996,"06","Sugary",6,40,60,3,"no","up","Left",0,"FL","FS",14,"up",453,1,"Students06"
54,0.638592600822449,0.497148156166077,66.3014831542969,139.603698730469,43.9755554199219,133.005,2076.992,1048,"Pictures_Onset",1027.994,"06","Sugary",6,40,60,3,"no","up","Left",0,"FL","FS",14,"up",453,1,"Students06"
54,0.654729187488556,0.504062473773956,74.1029205322266,137.857696533203,43.3385467529297,249.996,2343.002,1314.01,"Pictures_Onset",1294.004,"06","Sugary",6,40,60,3,"no","up","Left",0,"FL","FS",14,"up",453,1,"Students06"
54,0.663393974304199,0.499984860420227,78.1804580688477,138.860305786133,43.7027244567871,350.003,2625.997,1597.005,"Pictures_Onset",1576.999,"06","Sugary",6,40,60,3,"no","up","Left",0,"FL","FS",14,"up",453,1,"Students06"
55,0.377666682004929,0.505071461200714,-58.1547584533691,137.605941772461,43.2476196289062,216,1272,248.998,"Pictures_Onset",223.002,"06","Sugary",6,40,60,4,"no","down","Right",0,"FS","FL",14,"down",570,1,"Students06"
55,0.348000049591064,0.506814777851105,-72.2840805053711,137.114440917969,43.0692596435547,133.991,1638.003,615.001,"Pictures_Onset",589.005,"06","Sugary",6,40,60,4,"no","down","Right",0,"FS","FL",14,"down",570,1,"Students06"
55,0.401060611009598,0.525727272033691,-46.9606094360352,132.390899658203,41.3478813171387,167.002,1820.992,797.99,"Pictures_Onset",771.994,"06","Sugary",6,40,60,4,"no","down","Right",0,"FS","FL",14,"down",570,1,"Students06"
55,0.61497437953949,0.504230797290802,55.0838470458984,137.755645751953,43.3033294677734,198.988,2071.002,1048,"Pictures_Onset",1022.004,"06","Healthy",6,40,60,4,"no","down","Right",0,"FS","FL",14,"down",570,1,"Students06"
55,0.629333317279816,0.492074072360992,61.8766670227051,140.835556030273,44.4227752685547,282.995,2304,1280.998,"Pictures_Onset",1255.002,"06","Healthy",6,40,60,4,"no","down","Right",0,"FS","FL",14,"down",570,1,"Students06"
55,0.620666742324829,0.485869586467743,57.8457870483398,142.42854309082,45.0024681091309,365.004,2619.994,1596.992,"Pictures_Onset",1570.996,"06","Healthy",6,40,60,4,"no","down","Right",0,"FS","FL",14,"down",570,1,"Students06"
56,0.379555583000183,0.498703688383102,-57.0703659057617,139.206283569336,43.8300018310547,134.003,1308.992,281.997,"Pictures_Onset",259.994,"06","Healthy",6,40,60,1,"no","down","Right",1,"FL","FS",14,"down",1575,1,"Students06"
56,0.36533334851265,0.494916707277298,-63.9270858764648,140.164581298828,44.1800003051758,118.003,1524.992,497.997,"Pictures_Onset",475.994,"06","Healthy",6,40,60,1,"no","down","Right",1,"FL","FS",14,"down",1575,1,"Students06"
56,0.61235898733139,0.495359003543854,53.85205078125,140.048446655273,44.1356391906738,200,1824.998,798.003,"Pictures_Onset",776,"06","Sugary",6,40,60,1,"no","down","Right",1,"FL","FS",14,"down",1575,1,"Students06"
56,0.63981819152832,0.4968181848526,66.9815139770508,139.654541015625,43.991512298584,166.003,2074.995,1048,"Pictures_Onset",1025.997,"06","Sugary",6,40,60,1,"no","down","Right",1,"FL","FS",14,"down",1575,1,"Students06"
56,0.655958294868469,0.508833348751068,74.6635437011719,136.638107299805,42.8954162597656,249.997,2273.997,1247.002,"Pictures_Onset",1224.999,"06","Sugary",6,40,60,1,"no","down","Right",1,"FL","FS",14,"down",1575,1,"Students06"
56,0.39202219247818,0.505955517292023,-51.2719955444336,137.390426635742,43.1700019836426,232.999,2706.995,1680,"Pictures_Onset",1657.997,"06","Healthy",6,40,60,1,"no","down","Right",1,"FL","FS",14,"down",1575,1,"Students06"
57,0.424124985933304,0.48140275478363,-35.9252815246582,143.544448852539,45.4080505371094,383.002,1338.995,315.993,"Pictures_Onset",289.997,"06","Sugary",6,40,60,3,"no","up","Left",1,"FS","FL",15,"up",580,1,"Students06"
57,0.403750002384186,0.475799977779388,-45.6621627807617,145.004165649414,45.9410018920898,316.007,1754.995,731.993,"Pictures_Onset",705.997,"06","Sugary",6,40,60,3,"no","up","Left",1,"FS","FL",15,"up",580,1,"Students06"
57,0.594833254814148,0.477722257375717,45.5733337402344,144.486953735352,45.7516670227051,182.003,2154.995,1131.993,"Pictures_Onset",1105.997,"06","Healthy",6,40,60,3,"no","up","Left",1,"FS","FL",15,"up",580,1,"Students06"
57,0.628595292568207,0.491452395915985,61.5752334594727,141.025466918945,44.4911880493164,216,2386.995,1363.993,"Pictures_Onset",1337.997,"06","Healthy",6,40,60,3,"no","up","Left",1,"FS","FL",15,"up",580,1,"Students06"
57,0.644541621208191,0.502500057220459,69.1829223632812,138.219589233398,43.4720840454102,116.006,2636.992,1613.99,"Pictures_Onset",1587.994,"06","Healthy",6,40,60,3,"no","up","Left",1,"FS","FL",15,"up",580,1,"Students06"
57,0.558363676071167,0.509787917137146,28.0863647460938,136.411514282227,42.8127288818359,167.001,2819.994,1796.992,"Pictures_Onset",1770.996,"06","Healthy",6,40,60,3,"no","up","Left",1,"FS","FL",15,"up",580,1,"Students06"
58,0.388972193002701,0.515638887882233,-52.716381072998,134.91471862793,42.2672233581543,183.001,1305.997,282.995,"Pictures_Onset",256.999,"06","Healthy",6,40,60,4,"no","up","Left",0,"FL","FS",15,"up",491,1,"Students06"
58,0.369533330202103,0.505488872528076,-62.0411148071289,137.464645385742,43.1957817077637,232.998,1521.997,498.995,"Pictures_Onset",472.999,"06","Healthy",6,40,60,4,"no","up","Left",0,"FL","FS",15,"up",491,1,"Students06"
58,0.626102566719055,0.492102563381195,60.3723068237305,140.825393676758,44.4199981689453,199.987,1838.003,815.001,"Pictures_Onset",789.005,"06","Sugary",6,40,60,4,"no","up","Left",0,"FL","FS",15,"up",491,1,"Students06"
58,0.644645869731903,0.477666705846786,69.3089599609375,144.468124389648,45.7441596984863,249.996,2071.002,1048,"Pictures_Onset",1022.004,"06","Sugary",6,40,60,4,"no","up","Left",0,"FL","FS",15,"up",491,1,"Students06"
58,0.654833376407623,0.46792596578598,74.1159286499023,146.926834106445,46.6383361816406,282.995,2353.997,1330.995,"Pictures_Onset",1304.999,"06","Sugary",6,40,60,4,"no","up","Left",0,"FL","FS",15,"up",491,1,"Students06"
58,0.655016660690308,0.462250053882599,74.2104949951172,148.355010986328,47.1598320007324,315.993,2671.002,1648,"Pictures_Onset",1622.004,"06","Sugary",6,40,60,4,"no","up","Left",0,"FL","FS",15,"up",491,1,"Students06"
59,0.593611061573029,0.480805516242981,44.9183349609375,143.642211914062,45.4441680908203,183.002,1234.995,200,"Pictures_Onset",185.997,"06","Healthy",6,40,60,1,"no","down","Right",0,"FS","FL",15,"down",556,1,"Students06"
59,0.377240747213364,0.492851853370667,-58.3348121643066,140.647766113281,44.3540802001953,283.008,1500.992,465.997,"Pictures_Onset",451.994,"06","Sugary",6,40,60,1,"no","down","Right",0,"FS","FL",15,"down",556,1,"Students06"
59,0.417472213506699,0.478305578231812,-39.0711097717285,144.350021362305,45.7016639709473,183.001,1833.997,799.002,"Pictures_Onset",784.999,"06","Sugary",6,40,60,1,"no","down","Right",0,"FS","FL",15,"down",556,1,"Students06"
59,0.615518450737,0.48907408118248,55.3088836669922,141.598876953125,44.7011070251465,133.004,2099.994,1064.999,"Pictures_Onset",1050.996,"06","Healthy",6,40,60,1,"no","down","Right",0,"FS","FL",15,"down",556,1,"Students06"
59,0.610303044319153,0.509060561656952,52.9299964904785,136.534240722656,42.8572731018066,167.001,2465.997,1431.002,"Pictures_Onset",1416.999,"06","Healthy",6,40,60,1,"no","down","Right",0,"FS","FL",15,"down",556,1,"Students06"
60,0.387090891599655,0.4951211810112,-53.6612091064453,140.089385986328,44.1502990722656,165.004,1247.002,216.999,"Pictures_Onset",198.004,"06","Healthy",6,40,60,2,"no","down","Right",1,"FL","FS",15,"down",438,1,"Students06"
60,0.372111082077026,0.493194460868835,-60.6952819824219,140.613052368164,44.3411102294922,183.002,1446.003,416,"Pictures_Onset",397.005,"06","Healthy",6,40,60,2,"no","down","Right",1,"FL","FS",15,"down",438,1,"Students06"
60,0.633358955383301,0.479589760303497,63.8733329772949,144.022033691406,45.5830764770508,200,1712,681.997,"Pictures_Onset",663.002,"06","Sugary",6,40,60,2,"no","down","Right",1,"FL","FS",15,"down",438,1,"Students06"
60,0.650974273681641,0.464025646448135,72.3215408325195,147.910766601562,46.9971771240234,416,1945.011,915.008,"Pictures_Onset",896.013,"06","Sugary",6,40,60,2,"no","down","Right",1,"FL","FS",15,"down",438,1,"Students06"
60,0.411964952945709,0.497736781835556,-41.7399978637695,139.451736450195,43.9194793701172,298.995,2445.005,1415.002,"Pictures_Onset",1396.007,"06","Healthy",6,40,60,2,"no","down","Right",1,"FL","FS",15,"down",438,1,"Students06"
61,0.412555545568466,0.498333334922791,-41.5407371520996,139.2822265625,43.859260559082,133.005,1252.992,215.987,"Pictures_Onset",203.994,"06","Sugary",6,40,60,4,"no","down","Left",1,"FS","FL",16,"down",1346,1,"Students06"
61,0.38803032040596,0.500484883785248,-53.113941192627,138.723327636719,43.6539459228516,167.002,1418.995,381.99,"Pictures_Onset",369.997,"06","Sugary",6,40,60,4,"no","down","Left",1,"FS","FL",16,"down",1346,1,"Students06"
61,0.618388950824738,0.492638856172562,56.765552520752,140.699432373047,44.3733329772949,184,1718.003,680.998,"Pictures_Onset",669.005,"06","Healthy",6,40,60,4,"no","down","Left",1,"FS","FL",16,"down",1346,1,"Students06"
61,0.626894772052765,0.493315786123276,60.7798309326172,140.528930664062,44.3114051818848,299.993,1935.002,897.997,"Pictures_Onset",886.004,"06","Healthy",6,40,60,4,"no","down","Left",1,"FS","FL",16,"down",1346,1,"Students06"
61,0.624217927455902,0.493743568658829,59.5223121643066,140.47102355957,44.2912826538086,416.999,2266.995,1229.99,"Pictures_Onset",1217.997,"06","Healthy",6,40,60,4,"no","down","Left",1,"FS","FL",16,"down",1346,1,"Students06"
62,0.401814818382263,0.487296313047409,-46.5959243774414,142.040374755859,44.8633270263672,134.003,1259.994,232.999,"Pictures_Onset",210.996,"06","Healthy",6,40,60,1,"no","down","Left",0,"FL","FS",16,"down",628,1,"Students06"
62,0.624179482460022,0.500179529190063,59.565128326416,138.810272216797,43.6835899353027,200,1792.998,766.003,"Pictures_Onset",744,"06","Sugary",6,40,60,1,"no","down","Left",0,"FL","FS",16,"down",628,1,"Students06"
62,0.608388841152191,0.48397222161293,51.9863929748535,142.897232055664,45.1736145019531,183.001,2025.997,999.002,"Pictures_Onset",976.999,"06","Sugary",6,40,60,1,"no","down","Left",0,"FL","FS",16,"down",628,1,"Students06"
62,0.401380956172943,0.489428550004959,-46.8123817443848,141.543807983398,44.679759979248,216,2324.992,1297.997,"Pictures_Onset",1275.994,"06","Healthy",6,40,60,1,"no","down","Left",0,"FL","FS",16,"down",628,1,"Students06"
62,0.590078473091125,0.493235260248184,43.269603729248,140.538833618164,44.3156852722168,265.997,2624.998,1598.003,"Pictures_Onset",1576,"06","Sugary",6,40,60,1,"no","down","Left",0,"FL","FS",16,"down",628,1,"Students06"
63,0.387291699647903,0.490145742893219,-53.5254173278809,141.332916259766,44.6035385131836,249.997,1260.992,232.998,"Pictures_Onset",211.994,"06","Sugary",6,40,60,2,"no","up","Right",0,"FS","FL",16,"up",501,1,"Students06"
63,0.60237044095993,0.480000019073486,49.0566635131836,143.908508300781,45.5418548583984,133.005,1593.997,566.003,"Pictures_Onset",544.999,"06","Healthy",6,40,60,2,"no","up","Right",0,"FS","FL",16,"up",501,1,"Students06"
63,0.622900009155273,0.477700054645538,58.919994354248,144.511001586914,45.7599945068359,150.004,1925.99,897.996,"Pictures_Onset",876.992,"06","Healthy",6,40,60,2,"no","up","Right",0,"FS","FL",16,"up",501,1,"Students06"
63,0.411128222942352,0.485230773687363,-42.1548728942871,142.563323974609,45.0517921447754,198.988,2143.002,1115.008,"Pictures_Onset",1094.004,"06","Sugary",6,40,60,2,"no","up","Right",0,"FS","FL",16,"up",501,1,"Students06"
63,0.590846180915833,0.479794859886169,43.6520538330078,143.966934204102,45.5623092651367,199.001,2425.997,1398.003,"Pictures_Onset",1376.999,"06","Healthy",6,40,60,2,"no","up","Right",0,"FS","FL",16,"up",501,1,"Students06"
63,0.43478786945343,0.492636322975159,-30.8445453643799,140.737274169922,44.3875732421875,167.001,2691.994,1664,"Pictures_Onset",1642.996,"06","Sugary",6,40,60,2,"no","up","Right",0,"FS","FL",16,"up",501,1,"Students06"
64,0.619575798511505,0.491090893745422,57.2933311462402,141.095748901367,44.5196990966797,166.004,1296.998,266.995,"Pictures_Onset",248,"06","Sugary",6,40,60,3,"no","up","Right",1,"FL","FS",16,"up",743,1,"Students06"
64,0.392303019762039,0.483727246522903,-51.1127281188965,142.955459594727,45.1942443847656,166.988,1546.01,516.007,"Pictures_Onset",497.012,"06","Healthy",6,40,60,3,"no","up","Right",1,"FL","FS",16,"up",743,1,"Students06"
64,0.370142787694931,0.492333352565765,-61.6478614807129,140.823089599609,44.417854309082,217.012,1744.998,714.995,"Pictures_Onset",696,"06","Healthy",6,40,60,3,"no","up","Right",1,"FL","FS",16,"up",743,1,"Students06"
64,0.635060548782349,0.497030287981033,64.7360610961914,139.636672973633,43.9872703552246,164.992,2179.008,1149.005,"Pictures_Onset",1130.01,"06","Sugary",6,40,60,3,"no","up","Right",1,"FL","FS",16,"up",743,1,"Students06"
64,0.618296325206757,0.46940740942955,56.6840705871582,146.539993286133,46.4992599487305,133.99,2594.01,1564.007,"Pictures_Onset",1545.012,"06","Sugary",6,40,60,3,"no","up","Right",1,"FL","FS",16,"up",743,1,"Students06"
64,0.408212095499039,0.488151550292969,-43.5148506164551,141.82666015625,44.7821235656738,165.99,2811.008,1781.005,"Pictures_Onset",1762.01,"06","Healthy",6,40,60,3,"no","up","Right",1,"FL","FS",16,"up",743,1,"Students06"
65,0.380199998617172,0.492433309555054,-56.9063339233398,140.764984130859,44.397331237793,149.99,1303.002,283.008,"Pictures_Onset",254.004,"06","Sugary",6,40,60,1,"no","down","Left",1,"FS","FL",17,"down",532,1,"Students06"
65,0.619333326816559,0.491025656461716,57.1910362243652,141.087951660156,44.5138397216797,199.001,2051.994,1032,"Pictures_Onset",1002.996,"06","Healthy",6,40,60,1,"no","down","Left",1,"FS","FL",17,"down",532,1,"Students06"
65,0.370179504156113,0.48866668343544,-61.6725654602051,141.717956542969,44.742561340332,199.001,2667.994,1648,"Pictures_Onset",1618.996,"06","Sugary",6,40,60,1,"no","down","Left",1,"FS","FL",17,"down",532,1,"Students06"
66,0.386641025543213,0.48661544919014,-53.8115310668945,142.244888305664,44.9358978271484,199.002,1280,250.995,"Pictures_Onset",231.002,"06","Healthy",6,40,60,2,"no","down","Left",0,"FL","FS",17,"down",483,1,"Students06"
66,0.372111141681671,0.488777786493301,-60.7214813232422,141.707763671875,44.7392578125,132.007,1512.998,483.993,"Pictures_Onset",464,"06","Healthy",6,40,60,2,"no","down","Left",0,"FL","FS",17,"down",483,1,"Students06"
66,0.347452402114868,0.516309559345245,-72.4642868041992,134.768325805664,42.213809967041,216,1712,682.995,"Pictures_Onset",663.002,"06","Healthy",6,40,60,2,"no","down","Left",0,"FL","FS",17,"down",483,1,"Students06"
66,0.343095242977142,0.521190464496613,-74.5928497314453,133.539047241211,41.7690505981445,100.007,1960.998,931.993,"Pictures_Onset",912,"06","Healthy",6,40,60,2,"no","down","Left",0,"FL","FS",17,"down",483,1,"Students06"
66,0.377583295106888,0.48841667175293,-58.1152763366699,141.74528503418,44.7541656494141,182.003,2112,1082.995,"Pictures_Onset",1063.002,"06","Healthy",6,40,60,2,"no","down","Left",0,"FL","FS",17,"down",483,1,"Students06"
66,0.382666647434235,0.47406667470932,-55.7449951171875,145.373992919922,46.0746688842773,150.003,2327.002,1297.997,"Pictures_Onset",1278.004,"06","Healthy",6,40,60,2,"no","down","Left",0,"FL","FS",17,"down",483,1,"Students06"
66,0.632622122764587,0.472577720880508,63.4899978637695,145.769546508789,46.219554901123,233.997,2560,1530.995,"Pictures_Onset",1511.002,"06","Sugary",6,40,60,2,"no","down","Left",0,"FL","FS",17,"down",483,1,"Students06"
66,0.649500012397766,0.465733349323273,71.5623321533203,147.478973388672,46.8403358459473,150.003,2826.995,1797.99,"Pictures_Onset",1777.997,"06","Sugary",6,40,60,2,"no","down","Left",0,"FL","FS",17,"down",483,1,"Students06"
67,0.386359006166458,0.476897448301315,-53.9346122741699,144.697418212891,45.8287162780762,200,1300.006,265.996,"Pictures_Onset",251.008,"06","Sugary",6,40,60,3,"no","up","Right",0,"FS","FL",17,"up",422,1,"Students06"
67,0.376888871192932,0.463250011205673,-58.4527740478516,148.126937866211,47.0772247314453,183.001,1533.005,498.995,"Pictures_Onset",484.007,"06","Sugary",6,40,60,3,"no","up","Right",0,"FS","FL",17,"up",422,1,"Students06"
67,0.637333273887634,0.470555573701859,65.8348159790039,146.241851806641,46.392219543457,134.003,1799.002,764.992,"Pictures_Onset",750.004,"06","Healthy",6,40,60,3,"no","up","Right",0,"FS","FL",17,"up",422,1,"Students06"
67,0.643148183822632,0.483814835548401,68.5688858032227,142.933700561523,45.1866645812988,133.005,2132.006,1097.996,"Pictures_Onset",1083.008,"06","Healthy",6,40,60,3,"no","up","Right",0,"FS","FL",17,"up",422,1,"Students06"
67,0.622966647148132,0.494900047779083,58.8619995117188,140.129669189453,44.1659965515137,150.004,2348.006,1313.996,"Pictures_Onset",1299.008,"06","Healthy",6,40,60,3,"no","up","Right",0,"FS","FL",17,"up",422,1,"Students06"
67,0.602711141109467,0.514866709709167,49.2060012817383,135.144897460938,42.3515548706055,232.998,2531.008,1496.998,"Pictures_Onset",1482.01,"06","Healthy",6,40,60,3,"no","up","Right",0,"FS","FL",17,"up",422,1,"Students06"
68,0.401461541652679,0.49166664481163,-46.7607688903809,140.961791992188,44.4676895141602,199.001,1353.997,333.005,"Pictures_Onset",304.999,"06","Healthy",6,40,60,4,"no","up","Right",1,"FL","FS",17,"up",563,1,"Students06"
68,0.383571416139603,0.485809564590454,-55.26904296875,142.39714050293,44.9916725158691,216,1586.995,566.003,"Pictures_Onset",537.997,"06","Healthy",6,40,60,4,"no","up","Right",1,"FL","FS",17,"up",563,1,"Students06"
68,0.628311157226562,0.479866623878479,61.4624481201172,143.899551391602,45.5382232666016,233.997,2001.997,981.005,"Pictures_Onset",952.999,"06","Sugary",6,40,60,4,"no","up","Right",1,"FL","FS",17,"up",563,1,"Students06"
68,0.451888918876648,0.497555583715439,-22.6581478118896,139.479248046875,43.9288902282715,133.004,2451.994,1431.002,"Pictures_Onset",1402.996,"06","Healthy",6,40,60,4,"no","up","Right",1,"FL","FS",17,"up",563,1,"Students06"
68,0.42713725566864,0.493549019098282,-34.4637260437012,140.490005493164,44.2974548339844,265.997,2617.997,1597.005,"Pictures_Onset",1568.999,"06","Healthy",6,40,60,4,"no","up","Right",1,"FL","FS",17,"up",563,1,"Students06"
69,0.383729219436646,0.495916664600372,-55.1552047729492,139.880828857422,44.0749969482422,248.998,1288,265.997,"Pictures_Onset",239.002,"06","Sugary",6,40,60,2,"no","down","Left",1,"FS","FL",18,"down",500,1,"Students06"
69,0.629078388214111,0.48433330655098,61.808235168457,142.796661376953,45.1368637084961,266.009,1753.997,731.994,"Pictures_Onset",704.999,"06","Healthy",6,40,60,2,"no","down","Left",1,"FS","FL",18,"down",500,1,"Students06"
69,0.616608738899231,0.486362278461456,55.8994140625,142.267822265625,44.944637298584,365.005,2054.003,1032,"Pictures_Onset",1005.005,"06","Healthy",6,40,60,2,"no","down","Left",1,"FS","FL",18,"down",500,1,"Students06"
69,0.405166685581207,0.485249996185303,-44.9016647338867,142.549163818359,45.0458297729492,115.994,2686.003,1664,"Pictures_Onset",1637.005,"06","Sugary",6,40,60,2,"no","down","Left",1,"FS","FL",18,"down",500,1,"Students06"
70,0.399619102478027,0.500317454338074,-47.6247634887695,138.790481567383,43.6792068481445,332.007,1325.99,298.995,"Pictures_Onset",276.992,"06","Healthy",6,40,60,3,"no","down","Left",0,"FL","FS",18,"down",430,1,"Students06"
70,0.374190479516983,0.499190479516983,-59.7471504211426,139.052856445312,43.7766647338867,100.006,1691.994,664.999,"Pictures_Onset",642.996,"06","Healthy",6,40,60,3,"no","down","Left",0,"FL","FS",18,"down",430,1,"Students06"
70,0.617592573165894,0.490111082792282,56.315185546875,141.387405395508,44.6233329772949,134.003,1874.995,848,"Pictures_Onset",825.997,"06","Sugary",6,40,60,3,"no","down","Left",0,"FL","FS",18,"down",430,1,"Students06"
70,0.641871750354767,0.482846140861511,67.8974380493164,143.158721923828,45.2679481506348,200,2107.994,1080.999,"Pictures_Onset",1058.996,"06","Sugary",6,40,60,3,"no","down","Left",0,"FL","FS",18,"down",430,1,"Students06"
70,0.404640018939972,0.508386671543121,-45.2177276611328,136.738540649414,42.9326705932617,400,2406.989,1379.994,"Pictures_Onset",1357.991,"06","Healthy",6,40,60,3,"no","down","Left",0,"FL","FS",18,"down",430,1,"Students06"
70,0.404962956905365,0.517740786075592,-45.0599975585938,134.382965087891,42.0748138427734,133.99,2840,1813.005,"Pictures_Onset",1791.002,"06","Healthy",6,40,60,3,"no","down","Left",0,"FL","FS",18,"down",430,1,"Students06"
71,0.391846179962158,0.501435935497284,-51.3833351135254,138.53076171875,43.5848770141602,200,1321.997,298.995,"Pictures_Onset",272.999,"06","Sugary",6,40,60,4,"no","up","Right",0,"FS","FL",18,"up",515,1,"Students06"
71,0.6122727394104,0.515606045722961,53.776668548584,134.943634033203,42.2775764465332,448.998,1721.997,698.995,"Pictures_Onset",672.999,"06","Healthy",6,40,60,4,"no","up","Right",0,"FS","FL",18,"up",515,1,"Students06"
71,0.401785790920258,0.500928640365601,-46.5819053649902,138.611419677734,43.6147575378418,216,2471.002,1448,"Pictures_Onset",1422.004,"06","Sugary",6,40,60,4,"no","up","Right",0,"FS","FL",18,"up",515,1,"Students06"
71,0.604222178459167,0.497629582881927,49.9562950134277,139.451477050781,43.918514251709,133.005,2769.997,1746.995,"Pictures_Onset",1720.999,"06","Healthy",6,40,60,4,"no","up","Right",0,"FS","FL",18,"up",515,1,"Students06"
72,0.368630975484848,0.510761916637421,-62.4194030761719,136.158920288086,42.7201271057129,448.998,1297.997,265.997,"Pictures_Onset",248.999,"06","Healthy",6,40,60,1,"no","up","Right",1,"FL","FS",18,"up",548,1,"Students06"
72,0.59927773475647,0.509111166000366,47.5447196960449,136.560546875,42.8686103820801,183.001,1831.002,799.002,"Pictures_Onset",782.004,"06","Sugary",6,40,60,1,"no","up","Right",1,"FL","FS",18,"up",548,1,"Students06"
72,0.639416635036469,0.532166719436646,66.6887435913086,130.745819091797,40.7512474060059,116.992,2247.002,1215.002,"Pictures_Onset",1198.004,"06","Sugary",6,40,60,1,"no","up","Right",1,"FL","FS",18,"up",548,1,"Students06"
72,0.640083312988281,0.526916682720184,67.0704193115234,132.104995727539,41.2441635131836,117.004,2395.994,1363.994,"Pictures_Onset",1346.996,"06","Sugary",6,40,60,1,"no","up","Right",1,"FL","FS",18,"up",548,1,"Students06"
72,0.382583320140839,0.517479181289673,-55.7433319091797,134.466659545898,42.104377746582,248.998,2729.997,1697.997,"Pictures_Onset",1680.999,"06","Healthy",6,40,60,1,"no","up","Right",1,"FL","FS",18,"up",548,1,"Students06"
73,0.405200004577637,0.48759999871254,-44.9750022888184,141.95832824707,44.8306655883789,149.005,1308.006,282.995,"Pictures_Onset",259.008,"06","Sugary",6,40,60,3,"no","down","Left",1,"FS","FL",19,"down",501,1,"Students06"
73,0.375851839780807,0.484037041664124,-58.955924987793,142.860382080078,45.1603698730469,133.005,1507.008,481.997,"Pictures_Onset",458.01,"06","Sugary",6,40,60,3,"no","down","Left",1,"FS","FL",19,"down",501,1,"Students06"
73,0.623846113681793,0.499025613069534,59.3279457092285,139.109741210938,43.7946166992188,200,1723.008,697.997,"Pictures_Onset",674.01,"06","Healthy",6,40,60,3,"no","down","Left",1,"FS","FL",19,"down",501,1,"Students06"
73,0.632375001907349,0.500333309173584,63.4116630554199,138.733337402344,43.6583366394043,117.005,1956.006,930.995,"Pictures_Onset",907.008,"06","Healthy",6,40,60,3,"no","down","Left",1,"FS","FL",19,"down",501,1,"Students06"
73,0.42688462138176,0.489923030138016,-34.5571823120117,141.367568969727,44.6174354553223,416,2489.011,1464,"Pictures_Onset",1440.013,"06","Sugary",6,40,60,3,"no","down","Left",1,"FS","FL",19,"down",501,1,"Students06"
74,0.388733327388763,0.511133313179016,-52.8338317871094,136.032012939453,42.6751670837402,316.006,1281.997,249.997,"Pictures_Onset",232.999,"06","Healthy",6,40,60,4,"no","down","Left",0,"FL","FS",19,"down",445,1,"Students06"
74,0.602833330631256,0.501214325428009,49.3042869567871,138.577377319336,43.6021423339844,216,1897.997,865.997,"Pictures_Onset",848.999,"06","Sugary",6,40,60,4,"no","down","Left",0,"FL","FS",19,"down",445,1,"Students06"
74,0.428416669368744,0.508895814418793,-33.8620834350586,136.579376220703,42.8731231689453,249.011,2179.994,1147.994,"Pictures_Onset",1130.996,"06","Healthy",6,40,60,4,"no","down","Left",0,"FL","FS",19,"down",445,1,"Students06"
74,0.593636333942413,0.50618177652359,44.870304107666,137.286972045898,43.1306076049805,167.002,2496,1464,"Pictures_Onset",1447.002,"06","Sugary",6,40,60,4,"no","down","Left",0,"FL","FS",19,"down",445,1,"Students06"
75,0.593972265720367,0.626472175121307,45.0947227478027,106.997505187988,32.1072235107422,182.003,1034.995,0,"Pictures_Onset",-14.0030000000002,"06","Healthy",6,40,60,1,"no","up","Right",0,"FS","FL",19,"up",543,1,"Students06"
75,0.595259249210358,0.529518485069275,45.674446105957,131.435180664062,41.0007438659668,132.006,1267.994,232.999,"Pictures_Onset",218.996,"06","Healthy",6,40,60,1,"no","up","Right",0,"FS","FL",19,"up",543,1,"Students06"
75,0.3877272605896,0.515969693660736,-53.283031463623,134.83757019043,42.2387924194336,167.002,1466.995,432,"Pictures_Onset",417.997,"06","Sugary",6,40,60,1,"no","up","Right",0,"FS","FL",19,"up",543,1,"Students06"
75,0.617805480957031,0.50259256362915,56.4406433105469,138.197540283203,43.4626884460449,582.003,2049.997,1015.002,"Pictures_Onset",1000.999,"06","Healthy",6,40,60,1,"no","up","Right",0,"FS","FL",19,"up",543,1,"Students06"
75,0.618361055850983,0.486638903617859,56.7305564880371,142.221664428711,44.9277687072754,182.003,2665.997,1631.002,"Pictures_Onset",1616.999,"06","Healthy",6,40,60,1,"no","up","Right",0,"FS","FL",19,"up",543,1,"Students06"
76,0.383291661739349,0.494124948978424,-55.2841682434082,140.349578857422,44.2441673278809,116.992,1280,248.998,"Pictures_Onset",231.002,"06","Healthy",6,40,60,2,"no","up","Right",1,"FL","FS",19,"up",597,1,"Students06"
76,0.367444455623627,0.497000008821487,-62.9366645812988,139.601119995117,43.9740753173828,133.005,1429.99,398.988,"Pictures_Onset",380.992,"06","Healthy",6,40,60,2,"no","up","Right",1,"FL","FS",19,"up",597,1,"Students06"
76,0.618313789367676,0.478725433349609,56.7723503112793,144.250198364258,45.6656837463379,265.996,1647.002,616,"Pictures_Onset",598.004,"06","Sugary",6,40,60,2,"no","up","Right",1,"FL","FS",19,"up",597,1,"Students06"
76,0.554958343505859,0.492968678474426,26.4878120422363,140.618560791016,44.3450012207031,516.006,2291.994,1260.992,"Pictures_Onset",1242.996,"06","Sugary",6,40,60,2,"no","up","Right",1,"FL","FS",19,"up",597,1,"Students06"
77,0.414179474115372,0.500948667526245,-40.7138442993164,138.619995117188,43.6166648864746,199.002,1306.995,283.993,"Pictures_Onset",257.997,"06","Sugary",6,40,60,4,"no","down","Left",1,"FS","FL",20,"down",438,1,"Students06"
77,0.411696940660477,0.506484806537628,-41.8215179443359,137.236068725586,43.1112098693848,167.002,1538.995,515.993,"Pictures_Onset",489.997,"06","Sugary",6,40,60,4,"no","down","Left",1,"FS","FL",20,"down",438,1,"Students06"
77,0.608773350715637,0.480013310909271,52.148136138916,143.899871826172,45.5385246276855,398.003,2105.997,1082.995,"Pictures_Onset",1056.999,"06","Healthy",6,40,60,4,"no","down","Left",1,"FS","FL",20,"down",438,1,"Students06"
77,0.452533334493637,0.486266672611237,-22.4139995574951,142.307662963867,44.9580001831055,150.003,2836.992,1813.99,"Pictures_Onset",1787.994,"06","Sugary",6,40,60,4,"no","down","Left",1,"FS","FL",20,"down",438,1,"Students06"
78,0.377628177404404,0.502205073833466,-58.1503868103027,138.305511474609,43.5021781921387,414.988,1314.01,283.008,"Pictures_Onset",265.012,"06","Healthy",6,40,60,1,"no","down","Left",0,"FL","FS",20,"down",504,1,"Students06"
78,0.628428518772125,0.502746045589447,61.5384101867676,138.17903137207,43.457462310791,332.007,1830.003,799.001,"Pictures_Onset",781.005,"06","Sugary",6,40,60,1,"no","down","Left",0,"FL","FS",20,"down",504,1,"Students06"
78,0.647941112518311,0.511921525001526,70.8650970458984,135.847839355469,42.6074523925781,266.995,2195.008,1164.006,"Pictures_Onset",1146.01,"06","Sugary",6,40,60,1,"no","down","Left",0,"FL","FS",20,"down",504,1,"Students06"
78,0.6385138630867,0.511527717113495,66.3561096191406,135.94792175293,42.6443061828613,383.001,2495.002,1464,"Pictures_Onset",1446.004,"06","Sugary",6,40,60,1,"no","down","Left",0,"FL","FS",20,"down",504,1,"Students06"
79,0.597256362438202,0.485666632652283,46.6766700744629,142.45231628418,45.0115394592285,199.002,1224.998,200,"Pictures_Onset",176,"06","Healthy",6,40,60,2,"no","up","Right",0,"FS","FL",20,"up",443,1,"Students06"
79,0.411555588245392,0.473488867282867,-41.9219970703125,145.559768676758,46.1428871154785,232.999,1506.995,481.997,"Pictures_Onset",457.997,"06","Sugary",6,40,60,2,"no","up","Right",0,"FS","FL",20,"up",443,1,"Students06"
79,0.436539590358734,0.487698405981064,-29.9747657775879,141.980010986328,44.8406372070312,332.992,1990.003,965.005,"Pictures_Onset",941.005,"06","Sugary",6,40,60,2,"no","up","Right",0,"FS","FL",20,"up",443,1,"Students06"
79,0.629151463508606,0.480575740337372,61.8434906005859,143.744400024414,45.4810638427734,348.992,2390.003,1365.005,"Pictures_Onset",1341.005,"06","Healthy",6,40,60,2,"no","up","Right",0,"FS","FL",20,"up",443,1,"Students06"
79,0.405633300542831,0.493233352899551,-44.7366676330566,140.543991088867,44.3153305053711,149.991,2822.003,1797.005,"Pictures_Onset",1773.005,"06","Sugary",6,40,60,2,"no","up","Right",0,"FS","FL",20,"up",443,1,"Students06"
80,0.393625020980835,0.490062475204468,-50.4518699645996,141.381881713867,44.6218795776367,249.997,1285.005,248.999,"Pictures_Onset",236.007,"06","Healthy",6,40,60,3,"no","up","Right",1,"FL","FS",20,"up",567,1,"Students06"
80,0.378549069166183,0.478568643331528,-57.6443138122559,144.290985107422,45.6796073913574,268.006,1567.002,530.996,"Pictures_Onset",518.004,"06","Healthy",6,40,60,3,"no","up","Right",1,"FL","FS",20,"up",567,1,"Students06"
80,0.571548938751221,0.482705891132355,34.3962707519531,143.191955566406,45.2807884216309,264.999,1918.003,881.997,"Pictures_Onset",869.005,"06","Sugary",6,40,60,3,"no","up","Right",1,"FL","FS",20,"up",567,1,"Students06"
80,0.615458309650421,0.489250004291534,55.3620796203613,141.619995117188,44.7070808410645,116.992,2250.01,1214.004,"Pictures_Onset",1201.012,"06","Sugary",6,40,60,3,"no","up","Right",1,"FL","FS",20,"up",567,1,"Students06"
80,0.6378333568573,0.492000013589859,66.0208358764648,140.841690063477,44.4244422912598,183.002,2400,1363.994,"Pictures_Onset",1351.002,"06","Sugary",6,40,60,3,"no","up","Right",1,"FL","FS",20,"up",567,1,"Students06"
80,0.452280640602112,0.497806996107101,-22.4689464569092,139.422271728516,43.9091300964355,298.995,2666.01,1630.004,"Pictures_Onset",1617.012,"06","Healthy",6,40,60,3,"no","up","Right",1,"FL","FS",20,"up",567,1,"Students06"
