"trial_id","sx","sy","px","py","pz","duration","timestamp","trial_onset","label","label_onset","subject_nr.x","AOI_visited","subject_nr.y","fat_craving","sugar_craving","Block","practice","Arrow_Direction","Arrow_Position","Congruence","Left_Picture","Right_Picture","Pair_Number","response","response_time","accuracy","part_ID"
1,0.399972230195999,0.471638888120651,-47.8122215270996,145.802490234375,46.2316703796387,183.002,1678.003,583.001,"Pictures_Onset",630.003,"10","Salty",10,65,35,1,"no","up","Left",1,"FF","FL",1,"up",499,1,"Students10"
1,0.618540585041046,0.488828808069229,55.2478408813477,141.541702270508,44.6802749633789,600,1943.002,848,"Pictures_Onset",895.002,"10","Healthy",10,65,35,1,"no","up","Left",1,"FF","FL",1,"up",499,1,"Students10"
1,0.622030317783356,0.480242431163788,56.9539337158203,143.679702758789,45.4578819274902,166.003,2576,1480.998,"Pictures_Onset",1528,"10","Healthy",10,65,35,1,"no","up","Left",1,"FF","FL",1,"up",499,1,"Students10"
1,0.39926666021347,0.476799964904785,-48.1673355102539,144.559005737305,45.7766647338867,151.002,2824.998,1729.996,"Pictures_Onset",1776.998,"10","Salty",10,65,35,1,"no","up","Left",1,"FF","FL",1,"up",499,1,"Students10"
2,0.628202021121979,0.494697004556656,59.8221244812012,140.089172363281,44.1511116027832,532.006,1940.992,914.995,"Pictures_Onset",892.992,"10","Salty",10,65,35,2,"no","up","Left",0,"FL","FF",1,"up",451,1,"Students10"
3,0.618090987205505,0.455151468515396,55.0036354064941,149.964218139648,47.7463607788086,167.002,1840,752,"Pictures_Onset",792,"10","Healthy",10,65,35,3,"no","down","Right",0,"FF","FL",1,"down",1221,1,"Students10"
3,0.623238146305084,0.482460290193558,57.4611053466797,143.142395019531,45.2620735168457,332.992,2040,952,"Pictures_Onset",992,"10","Healthy",10,65,35,3,"no","down","Right",0,"FF","FL",1,"down",1221,1,"Students10"
3,0.384703695774078,0.497999995946884,-55.0181503295898,139.27961730957,43.8574066162109,132.992,2456,1368,"Pictures_Onset",1408,"10","Salty",10,65,35,3,"no","down","Right",0,"FF","FL",1,"down",1221,1,"Students10"
4,0.373250067234039,0.484466701745987,-60.418830871582,142.657333374023,45.086498260498,317.005,1733.99,648.998,"Pictures_Onset",685.99,"10","Healthy",10,65,35,4,"no","down","Right",1,"FL","FF",1,"down",365,1,"Students10"
4,0.38850000500679,0.49937492609024,-53.2710380554199,138.952499389648,43.7372894287109,250.009,2083.994,999.002,"Pictures_Onset",1035.994,"10","Healthy",10,65,35,4,"no","down","Right",1,"FL","FF",1,"down",365,1,"Students10"
4,0.638777732849121,0.51018887758255,64.8196640014648,136.237884521484,42.7495613098145,481.997,2416.998,1332.006,"Pictures_Onset",1368.998,"10","Salty",10,65,35,4,"no","down","Right",1,"FL","FF",1,"down",365,1,"Students10"
5,0.614657461643219,0.497268408536911,53.4682464599609,139.441482543945,43.9155540466309,581.005,1664.998,583.001,"Pictures_Onset",616.998,"10","Healthy",10,65,35,2,"no","up","Left",1,"FF","FL",2,"up",516,1,"Students10"
5,0.613791704177856,0.501166641712189,52.9487457275391,138.489166259766,43.5687522888184,116.992,2279.002,1197.005,"Pictures_Onset",1231.002,"10","Healthy",10,65,35,2,"no","up","Left",1,"FF","FL",2,"up",516,1,"Students10"
5,0.610083341598511,0.502638876438141,51.3047180175781,138.144989013672,43.4436073303223,183.002,2794.995,1712.998,"Pictures_Onset",1746.995,"10","Healthy",10,65,35,2,"no","up","Left",1,"FF","FL",2,"up",516,1,"Students10"
6,0.387060612440109,0.472727298736572,-53.9178733825684,145.561218261719,46.144847869873,167.001,1523.994,498.996,"Pictures_Onset",475.994,"10","Healthy",10,65,35,3,"no","up","Left",0,"FL","FF",2,"up",427,1,"Students10"
6,0.603526294231415,0.497736871242523,48.267017364502,139.318954467773,43.8705253601074,298.995,1824,799.002,"Pictures_Onset",776,"10","Salty",10,65,35,3,"no","up","Left",0,"FL","FF",2,"up",427,1,"Students10"
6,0.639240682125092,0.499796271324158,65.0568542480469,138.821670532227,43.6901893615723,283.008,2172.992,1147.994,"Pictures_Onset",1124.992,"10","Salty",10,65,35,3,"no","up","Left",0,"FL","FF",2,"up",427,1,"Students10"
6,0.405346125364304,0.493538409471512,-45.2533226013184,140.396392822266,44.2634696960449,416.998,2521.997,1496.999,"Pictures_Onset",1473.997,"10","Healthy",10,65,35,3,"no","up","Left",0,"FL","FF",2,"up",427,1,"Students10"
8,0.376583278179169,0.495449960231781,-58.8109931945801,139.903686523438,44.0843353271484,314.996,1328.998,299.008,"Pictures_Onset",280.998,"10","Healthy",10,65,35,1,"no","down","Right",1,"FL","FF",2,"down",483,1,"Students10"
8,0.377074033021927,0.486037045717239,-58.6188888549805,142.294799804688,44.9544448852539,131.993,1679.002,649.012,"Pictures_Onset",631.002,"10","Healthy",10,65,35,1,"no","down","Right",1,"FL","FF",2,"down",483,1,"Students10"
8,0.394205152988434,0.488666653633118,-50.5069313049316,141.597442626953,44.7007713317871,200.998,1843.994,814.004,"Pictures_Onset",795.994,"10","Healthy",10,65,35,1,"no","down","Right",1,"FL","FF",2,"down",483,1,"Students10"
8,0.624277830123901,0.516499996185303,58.0051879882812,134.665557861328,42.1764831542969,283.008,2293.99,1264,"Pictures_Onset",1245.99,"10","Salty",10,65,35,1,"no","down","Right",1,"FL","FF",2,"down",483,1,"Students10"
8,0.629784286022186,0.505980432033539,60.564510345459,137.318634033203,43.1435279846191,266.995,2609.997,1580.007,"Pictures_Onset",1561.997,"10","Salty",10,65,35,1,"no","down","Right",1,"FL","FF",2,"down",483,1,"Students10"
9,0.389958322048187,0.472000002861023,-52.5833358764648,145.733337402344,46.2062492370605,114.995,1590.003,567.001,"Pictures_Onset",542.003,"10","Salty",10,65,35,3,"no","up","Left",1,"FF","FL",3,"up",417,1,"Students10"
9,0.386809557676315,0.474380970001221,-54.0928573608398,145.130950927734,45.985954284668,216,1738.995,715.993,"Pictures_Onset",690.995,"10","Salty",10,65,35,3,"no","up","Left",1,"FF","FL",3,"up",417,1,"Students10"
9,0.632523715496063,0.484261840581894,61.8918991088867,142.669998168945,45.0904731750488,216.999,2022.003,999.001,"Pictures_Onset",974.003,"10","Healthy",10,65,35,3,"no","up","Left",1,"FF","FL",3,"up",417,1,"Students10"
9,0.621784329414368,0.435196101665497,56.7596130371094,154.89762878418,49.5405883789062,266.01,2354.995,1331.993,"Pictures_Onset",1306.995,"10","Healthy",10,65,35,3,"no","up","Left",1,"FF","FL",3,"up",417,1,"Students10"
10,0.41709092259407,0.486575782299042,-39.7415199279785,142.104232788086,44.8842430114746,167.001,1545.997,515.994,"Pictures_Onset",497.997,"10","Healthy",10,65,35,4,"no","up","Left",0,"FL","FF",3,"up",470,1,"Students10"
10,0.378033339977264,0.513166666030884,-58.1256637573242,135.463653564453,42.4686660766602,151.001,2011.994,981.991,"Pictures_Onset",963.994,"10","Healthy",10,65,35,4,"no","up","Left",0,"FL","FF",3,"up",470,1,"Students10"
10,0.551510393619537,0.518260419368744,23.6387500762939,134.236968994141,42.0220794677734,516.006,2227.994,1197.991,"Pictures_Onset",1179.994,"10","Salty",10,65,35,4,"no","up","Left",0,"FL","FF",3,"up",470,1,"Students10"
10,0.55100005865097,0.508564174175262,23.4276924133301,136.630264282227,42.891788482666,200,2777.997,1747.994,"Pictures_Onset",1729.997,"10","Salty",10,65,35,4,"no","up","Left",0,"FL","FF",3,"up",470,1,"Students10"
11,0.618499994277954,0.49643748998642,55.2260360717773,139.638763427734,43.9866638183594,248.999,1362.995,334.003,"Pictures_Onset",314.995,"10","Healthy",10,65,35,1,"no","down","Right",0,"FF","FL",3,"down",477,1,"Students10"
11,0.627629578113556,0.517666697502136,59.5785102844238,134.379257202148,42.0722236633301,133.005,1644.992,616,"Pictures_Onset",596.992,"10","Healthy",10,65,35,1,"no","down","Right",0,"FF","FL",3,"down",477,1,"Students10"
11,0.389783322811127,0.500216603279114,-52.5783309936523,138.711822509766,43.6496658325195,314.995,1961.997,933.005,"Pictures_Onset",913.997,"10","Salty",10,65,35,1,"no","down","Right",0,"FF","FL",3,"down",477,1,"Students10"
11,0.646000027656555,0.478444457054138,68.2292633056641,144.111846923828,45.6146278381348,281.997,2393.997,1365.005,"Pictures_Onset",1345.997,"10","Healthy",10,65,35,1,"no","down","Right",0,"FF","FL",3,"down",477,1,"Students10"
11,0.617638945579529,0.455250024795532,54.7450065612793,149.923889160156,47.7299995422363,184,2725.99,1696.998,"Pictures_Onset",1677.99,"10","Healthy",10,65,35,1,"no","down","Right",0,"FF","FL",3,"down",477,1,"Students10"
12,0.394470632076263,0.518784284591675,-50.4586296081543,134.112365722656,41.9758834838867,265.996,1463.002,432,"Pictures_Onset",415.002,"10","Healthy",10,65,35,2,"no","down","Right",1,"FL","FF",3,"down",576,1,"Students10"
12,0.425708383321762,0.512729108333588,-35.6958312988281,135.596664428711,42.5168762207031,248.998,1763.008,732.006,"Pictures_Onset",715.008,"10","Healthy",10,65,35,2,"no","down","Right",1,"FL","FF",3,"down",576,1,"Students10"
12,0.349098026752472,0.535352945327759,-71.8611679077148,130.010772705078,40.482551574707,265.996,2079.002,1048,"Pictures_Onset",1031.002,"10","Healthy",10,65,35,2,"no","down","Right",1,"FL","FF",3,"down",576,1,"Students10"
12,0.645102560520172,0.495743572711945,67.7820510864258,139.840255737305,44.0615310668945,199.002,2462.003,1431.001,"Pictures_Onset",1414.003,"10","Salty",10,65,35,2,"no","down","Right",1,"FL","FF",3,"down",576,1,"Students10"
12,0.647166669368744,0.491499990224838,68.7341690063477,140.876663208008,44.4370803833008,116.992,2694.003,1663.001,"Pictures_Onset",1646.003,"10","Salty",10,65,35,2,"no","down","Right",1,"FL","FF",3,"down",576,1,"Students10"
13,0.38137498497963,0.51045835018158,-56.5758285522461,136.180419921875,42.7283325195312,116.006,2502.989,1480,"Pictures_Onset",1454.989,"10","Salty",10,65,35,4,"no","up","Left",1,"FF","FL",4,"up",581,1,"Students10"
15,0.616600036621094,0.511099994182587,54.3393363952637,136.005996704102,42.6659965515137,148.992,1805.005,749.005,"Pictures_Onset",757.005,"10","Healthy",10,65,35,2,"no","down","Right",0,"FF","FL",4,"down",1386,1,"Students10"
15,0.449393928050995,0.501939356327057,-24.4393939971924,138.282424926758,43.4942436218262,166.989,2020.006,964.006,"Pictures_Onset",972.006,"10","Salty",10,65,35,2,"no","down","Right",0,"FF","FL",4,"down",1386,1,"Students10"
16,0.632036983966827,0.483481526374817,61.4959297180176,142.873718261719,45.1655578613281,134.003,1817.997,781.991,"Pictures_Onset",769.997,"10","Salty",10,65,35,3,"no","down","Right",1,"FL","FF",4,"down",491,1,"Students10"
16,0.398766696453094,0.494666665792465,-48.4244995117188,140.095336914062,44.1533355712891,316.007,2034.995,998.989,"Pictures_Onset",986.995,"10","Healthy",10,65,35,3,"no","down","Right",1,"FL","FF",4,"down",491,1,"Students10"
16,0.626242399215698,0.477545440196991,58.9469718933105,144.33544921875,45.6969718933105,167.002,2616.998,1580.992,"Pictures_Onset",1568.998,"10","Salty",10,65,35,3,"no","down","Right",1,"FL","FF",4,"down",491,1,"Students10"
17,0.621694445610046,0.479083329439163,56.7644462585449,143.983322143555,45.5686073303223,181.99,2277.005,1249.011,"Pictures_Onset",1229.005,"10","Healthy",10,65,35,1,"no","up","Left",1,"FF","FL",5,"up",508,1,"Students10"
17,0.601214289665222,0.484214276075363,47.0547561645508,142.692855834961,45.0997657775879,216,2526.003,1498.009,"Pictures_Onset",1478.003,"10","Healthy",10,65,35,1,"no","up","Left",1,"FF","FL",5,"up",508,1,"Students10"
17,0.42166668176651,0.487333357334137,-37.5353317260742,141.918334960938,44.8169975280762,150.004,2824.998,1797.004,"Pictures_Onset",1776.998,"10","Salty",10,65,35,1,"no","up","Left",1,"FF","FL",5,"up",508,1,"Students10"
18,0.410272717475891,0.506969690322876,-42.966365814209,137.03727722168,43.0396957397461,167.001,1611.994,531.994,"Pictures_Onset",563.994,"10","Healthy",10,65,35,2,"no","up","Left",0,"FL","FF",5,"up",346,1,"Students10"
18,0.375361084938049,0.501638948917389,-59.4252738952637,138.335556030273,43.5138893127441,184,1827.994,747.994,"Pictures_Onset",779.994,"10","Healthy",10,65,35,2,"no","up","Left",0,"FL","FF",5,"up",346,1,"Students10"
18,0.617119014263153,0.522309601306915,54.6289253234863,133.244415283203,41.6603622436523,448,2096,1016,"Pictures_Onset",1048,"10","Salty",10,65,35,2,"no","up","Left",0,"FL","FF",5,"up",346,1,"Students10"
19,0.446416646242142,0.476083338260651,-25.9645843505859,144.714584350586,45.8337516784668,117.005,1594.995,565.005,"Pictures_Onset",546.995,"10","Salty",10,65,35,3,"no","down","Right",0,"FF","FL",5,"down",611,1,"Students10"
19,0.625055491924286,0.484370350837708,58.3627777099609,142.665573120117,45.0885200500488,283.008,1794.995,765.005,"Pictures_Onset",746.995,"10","Healthy",10,65,35,3,"no","down","Right",0,"FF","FL",5,"down",611,1,"Students10"
19,0.610479176044464,0.466729193925858,51.4306259155273,147.039993286133,46.6806297302246,249.996,2111.002,1081.012,"Pictures_Onset",1063.002,"10","Healthy",10,65,35,3,"no","down","Right",0,"FF","FL",5,"down",611,1,"Students10"
19,0.425354093313217,0.460624992847443,-35.8825035095215,148.556259155273,47.234375,249.996,2427.994,1398.004,"Pictures_Onset",1379.994,"10","Salty",10,65,35,3,"no","down","Right",0,"FF","FL",5,"down",611,1,"Students10"
19,0.383562505245209,0.484999924898148,-55.6056289672852,142.534790039062,45.0414581298828,249.996,2727.002,1697.012,"Pictures_Onset",1679.002,"10","Salty",10,65,35,3,"no","down","Right",0,"FF","FL",5,"down",611,1,"Students10"
21,0.606176435947418,0.485235273838043,49.4850959777832,142.431976318359,45.0029373168945,264.999,2040.998,1016,"Pictures_Onset",992.998,"10","Healthy",10,65,35,2,"no","down","Left",1,"FF","FL",6,"down",669,1,"Students10"
21,0.62066662311554,0.494999974966049,56.2830505371094,139.980819702148,44.1122245788574,183.002,2805.99,1780.992,"Pictures_Onset",1757.99,"10","Healthy",10,65,35,2,"no","down","Left",1,"FF","FL",6,"down",669,1,"Students10"
22,0.370357096195221,0.464023798704147,-61.8264236450195,147.764526367188,46.9459457397461,216.998,1472,448.998,"Pictures_Onset",424,"10","Healthy",10,65,35,3,"no","down","Left",0,"FL","FF",6,"down",348,1,"Students10"
22,0.629805564880371,0.494972229003906,60.6147270202637,140.014999389648,44.1244468688965,181.99,2072,1048.998,"Pictures_Onset",1024,"10","Salty",10,65,35,3,"no","down","Left",0,"FL","FF",6,"down",348,1,"Students10"
24,0.389230728149414,0.453153818845749,-52.8943634033203,150.436157226562,47.9164085388184,200,1696,666.01,"Pictures_Onset",648,"10","Healthy",10,65,35,1,"no","up","Right",1,"FL","FF",6,"up",493,1,"Students10"
24,0.593283295631409,0.502766728401184,43.3866653442383,138.061676025391,43.4131660461426,315.008,1995.994,966.004,"Pictures_Onset",947.994,"10","Salty",10,65,35,1,"no","up","Right",1,"FL","FF",6,"up",493,1,"Students10"
24,0.572589814662933,0.509384572505951,33.5541038513184,136.426422119141,42.8166656494141,200,2444.992,1415.002,"Pictures_Onset",1396.992,"10","Salty",10,65,35,1,"no","up","Right",1,"FL","FF",6,"up",493,1,"Students10"
24,0.431119024753571,0.484880954027176,-33.1159515380859,142.582626342773,45.059757232666,216,2711.002,1681.012,"Pictures_Onset",1663.002,"10","Healthy",10,65,35,1,"no","up","Right",1,"FL","FF",6,"up",493,1,"Students10"
25,0.626041650772095,0.489708364009857,58.7975006103516,141.301879882812,44.5939559936523,249.997,1888,864.998,"Pictures_Onset",840,"10","Healthy",10,65,35,3,"no","down","Left",1,"FF","FL",7,"down",439,1,"Students10"
25,0.413619101047516,0.493285715579987,-41.391429901123,140.474990844727,44.2923851013184,216,2204.006,1181.004,"Pictures_Onset",1156.006,"10","Salty",10,65,35,3,"no","down","Left",1,"FF","FL",7,"down",439,1,"Students10"
26,0.628714263439178,0.487619072198868,60.0959548950195,141.870010375977,44.7995300292969,215.002,1332.992,299.994,"Pictures_Onset",284.992,"10","Salty",10,65,35,4,"no","down","Left",0,"FL","FF",7,"down",422,1,"Students10"
29,0.591500043869019,0.466733306646347,42.5479965209961,147.025344848633,46.675666809082,148.992,1505.997,481.997,"Pictures_Onset",457.997,"10","Healthy",10,65,35,4,"no","down","Left",1,"FF","FL",8,"down",422,1,"Students10"
29,0.581222176551819,0.500399947166443,37.6582260131836,138.69157409668,43.6426658630371,233.997,2304,1280,"Pictures_Onset",1256,"10","Healthy",10,65,35,4,"no","down","Left",1,"FF","FL",8,"down",422,1,"Students10"
30,0.576133370399475,0.482199996709824,35.306999206543,143.161346435547,45.2706642150879,151.002,1636.992,615.002,"Pictures_Onset",588.992,"10","Salty",10,65,35,1,"no","down","Left",0,"FL","FF",8,"down",508,1,"Students10"
30,0.406111121177673,0.492950618267059,-44.896053314209,140.52294921875,44.3093757629395,432.999,1853.99,832,"Pictures_Onset",805.99,"10","Healthy",10,65,35,1,"no","down","Left",0,"FL","FF",8,"down",508,1,"Students10"
30,0.580900013446808,0.493083328008652,37.5566635131836,140.511489868164,44.3049926757812,315.993,2369.997,1348.007,"Pictures_Onset",1321.997,"10","Salty",10,65,35,1,"no","down","Left",0,"FL","FF",8,"down",508,1,"Students10"
31,0.581555545330048,0.476444453001022,37.7948150634766,144.628128051758,45.803337097168,133.005,1680.998,648.998,"Pictures_Onset",632.998,"10","Healthy",10,65,35,2,"no","up","Right",0,"FF","FL",8,"up",411,1,"Students10"
31,0.390575766563416,0.487909108400345,-52.3278770446777,141.800003051758,44.7736358642578,168,1880,848,"Pictures_Onset",832,"10","Salty",10,65,35,2,"no","up","Right",0,"FF","FL",8,"up",411,1,"Students10"
31,0.610796213150024,0.493666648864746,51.576301574707,140.351852416992,44.245922088623,282.009,2163.994,1131.994,"Pictures_Onset",1115.994,"10","Healthy",10,65,35,2,"no","up","Right",0,"FF","FL",8,"up",411,1,"Students10"
31,0.630511105060577,0.490522235631943,60.9392166137695,141.146896362305,44.5373306274414,482.995,2480,1448,"Pictures_Onset",1432,"10","Healthy",10,65,35,2,"no","up","Right",0,"FF","FL",8,"up",411,1,"Students10"
32,0.551791667938232,0.466333329677582,23.7616653442383,147.132919311523,46.716667175293,115.994,1760,732.006,"Pictures_Onset",712,"10","Salty",10,65,35,3,"no","up","Right",1,"FL","FF",8,"up",484,1,"Students10"
32,0.551613986492157,0.476052641868591,23.6922817230225,144.728057861328,45.8387680053711,300.007,1909.99,881.996,"Pictures_Onset",861.99,"10","Salty",10,65,35,3,"no","up","Right",1,"FL","FF",8,"up",484,1,"Students10"
32,0.583785653114319,0.489619076251984,38.8035697937012,141.357376098633,44.613094329834,215.001,2259.994,1232,"Pictures_Onset",1211.994,"10","Salty",10,65,35,3,"no","up","Right",1,"FL","FF",8,"up",484,1,"Students10"
33,0.385530889034271,0.493197590112686,-54.674201965332,140.473556518555,44.2911071777344,432,1615.002,582.004,"Pictures_Onset",567.002,"10","Salty",10,65,35,1,"no","down","Left",1,"FF","FL",9,"down",507,1,"Students10"
33,0.377619028091431,0.512047648429871,-58.3761940002441,135.783798217773,42.5833320617676,100.006,2081.997,1048.999,"Pictures_Onset",1033.997,"10","Salty",10,65,35,1,"no","down","Left",1,"FF","FL",9,"down",507,1,"Students10"
33,0.624962985515594,0.482240736484528,58.2562942504883,143.199447631836,45.2840728759766,283.993,2247.002,1214.004,"Pictures_Onset",1199.002,"10","Healthy",10,65,35,1,"no","down","Left",1,"FF","FL",9,"down",507,1,"Students10"
33,0.619566679000854,0.49669998884201,55.7700004577637,139.593002319336,43.9706649780273,150.003,2579.994,1546.996,"Pictures_Onset",1531.994,"10","Healthy",10,65,35,1,"no","down","Left",1,"FF","FL",9,"down",507,1,"Students10"
34,0.618799984455109,0.473133325576782,55.4260025024414,145.440017700195,46.0979995727539,150.004,1752.998,731.993,"Pictures_Onset",704.998,"10","Salty",10,65,35,2,"no","down","Left",0,"FL","FF",9,"down",563,1,"Students10"
34,0.634333252906799,0.489222198724747,62.6933326721191,141.427780151367,44.6392555236816,132.007,1986.995,965.99,"Pictures_Onset",938.995,"10","Salty",10,65,35,2,"no","down","Left",0,"FL","FF",9,"down",563,1,"Students10"
34,0.390525549650192,0.502961575984955,-52.2891044616699,138.058456420898,43.4121780395508,416,2201.997,1180.992,"Pictures_Onset",1153.997,"10","Healthy",10,65,35,2,"no","down","Left",0,"FL","FF",9,"down",563,1,"Students10"
34,0.394055515527725,0.484583288431168,-50.570556640625,142.595016479492,45.0636138916016,184,2650.995,1629.99,"Pictures_Onset",1602.995,"10","Healthy",10,65,35,2,"no","down","Left",0,"FL","FF",9,"down",563,1,"Students10"
36,0.384121209383011,0.506666660308838,-55.2824211120605,137.159393310547,43.085147857666,166.004,1744.998,714.995,"Pictures_Onset",696.998,"10","Healthy",10,65,35,4,"no","up","Right",1,"FL","FF",9,"up",515,1,"Students10"
38,0.36474996805191,0.493208348751068,-64.4133377075195,140.446670532227,44.2829170227051,114.995,1447.002,416.999,"Pictures_Onset",399.002,"10","Healthy",10,65,35,3,"no","down","Left",0,"FL","FF",10,"down",525,1,"Students10"
38,0.600833296775818,0.49278336763382,46.8775024414062,140.550674438477,44.3194961547852,316.992,1862.003,832,"Pictures_Onset",814.003,"10","Salty",10,65,35,3,"no","down","Left",0,"FL","FF",10,"down",525,1,"Students10"
38,0.394282132387161,0.507012784481049,-50.5349998474121,137.011688232422,43.0301322937012,416,2262.003,1232,"Pictures_Onset",1214.003,"10","Healthy",10,65,35,3,"no","down","Left",0,"FL","FF",10,"down",525,1,"Students10"
38,0.591874957084656,0.490833342075348,42.7308349609375,141.031661987305,44.4945831298828,115.994,2760.998,1730.995,"Pictures_Onset",1712.998,"10","Salty",10,65,35,3,"no","down","Left",0,"FL","FF",10,"down",525,1,"Students10"
39,0.548743605613708,0.474743634462357,22.3610248565674,145.018981933594,45.9448699951172,200,1359.002,332.992,"Pictures_Onset",311.002,"10","Healthy",10,65,35,4,"no","up","Right",0,"FF","FL",10,"up",495,1,"Students10"
43,0.399888873100281,0.504166722297668,-47.8294410705566,137.755569458008,43.3019409179688,183.002,2149.99,1113.996,"Pictures_Onset",1101.99,"10","Sugary",10,65,35,1,"no","down","Right",0,"FS","FL",11,"down",524,1,"Students10"
46,0.601811587810516,0.486449271440506,47.3310050964355,142.128387451172,44.8939094543457,366.003,2134.003,1097.997,"Pictures_Onset",1086.003,"10","Sugary",10,65,35,1,"no","up","Left",0,"FL","FS",12,"up",425,1,"Students10"
47,0.394566655158997,0.491033375263214,-50.4313316345215,140.983337402344,44.4770011901855,148.992,1327.002,300.007,"Pictures_Onset",279.002,"10","Sugary",10,65,35,2,"no","down","Right",0,"FS","FL",12,"down",471,1,"Students10"
47,0.364583343267441,0.472777754068375,-64.5091705322266,145.550277709961,46.1394462585449,184,1510.003,483.008,"Pictures_Onset",462.003,"10","Sugary",10,65,35,2,"no","down","Right",0,"FS","FL",12,"down",471,1,"Students10"
47,0.622818231582642,0.495939433574677,57.303638458252,139.795150756836,44.0454483032227,164.992,1981.005,954.01,"Pictures_Onset",933.005,"10","Healthy",10,65,35,2,"no","down","Right",0,"FS","FL",12,"down",471,1,"Students10"
47,0.627117693424225,0.506588280200958,59.3258743286133,137.167266845703,43.0882377624512,266.009,2179.994,1152.999,"Pictures_Onset",1131.994,"10","Healthy",10,65,35,2,"no","down","Right",0,"FS","FL",12,"down",471,1,"Students10"
47,0.610407412052155,0.506925880908966,51.4414825439453,137.048522949219,43.0433349609375,131.994,2480,1453.005,"Pictures_Onset",1432,"10","Healthy",10,65,35,2,"no","down","Right",0,"FS","FL",12,"down",471,1,"Students10"
47,0.600645780563354,0.469312518835068,46.8272895812988,146.393753051758,46.444580078125,250.01,2644.992,1617.997,"Pictures_Onset",1596.992,"10","Healthy",10,65,35,2,"no","down","Right",0,"FS","FL",12,"down",471,1,"Students10"
48,0.375309497117996,0.469404757022858,-59.5152397155762,146.358352661133,46.4333305358887,217.997,1277.99,248.998,"Pictures_Onset",229.99,"10","Healthy",10,65,35,3,"no","down","Right",1,"FL","FS",12,"down",469,1,"Students10"
48,0.618095278739929,0.465238153934479,55.0804748535156,147.42643737793,46.821907043457,216,1744.998,716.006,"Pictures_Onset",696.998,"10","Sugary",10,65,35,3,"no","down","Right",1,"FL","FS",12,"down",469,1,"Students10"
48,0.626787781715393,0.459272682666779,59.1030311584473,148.916061401367,47.3630332946777,166.003,1993.997,965.005,"Pictures_Onset",945.997,"10","Sugary",10,65,35,3,"no","down","Right",1,"FL","FS",12,"down",469,1,"Students10"
48,0.40676474571228,0.491901963949203,-44.5850982666016,140.82096862793,44.4172554016113,265.996,2243.994,1215.002,"Pictures_Onset",1195.994,"10","Healthy",10,65,35,3,"no","down","Right",1,"FL","FS",12,"down",469,1,"Students10"
48,0.393636345863342,0.505484819412231,-50.774242401123,137.423034667969,43.1806030273438,165.99,2544,1515.008,"Pictures_Onset",1496,"10","Healthy",10,65,35,3,"no","down","Right",1,"FL","FS",12,"down",469,1,"Students10"
49,0.598380923271179,0.487841248512268,45.7350769042969,141.799682617188,44.7723846435547,333.005,1730.995,698.995,"Pictures_Onset",682.995,"10","Healthy",10,65,35,1,"no","up","Left",1,"FS","FL",13,"up",445,1,"Students10"
49,0.601176977157593,0.51199996471405,47.095100402832,135.802490234375,42.5915603637695,515.994,2096.998,1064.998,"Pictures_Onset",1048.998,"10","Healthy",10,65,35,1,"no","up","Left",1,"FS","FL",13,"up",445,1,"Students10"
50,0.63355553150177,0.505416691303253,62.3313903808594,137.462768554688,43.1961097717285,182.003,2144,1114.995,"Pictures_Onset",1096,"10","Sugary",10,65,35,2,"no","up","Left",0,"FL","FS",13,"up",483,1,"Students10"
50,0.631999909877777,0.511694490909576,61.6525001525879,135.882507324219,42.6191673278809,184,2360,1330.995,"Pictures_Onset",1312,"10","Sugary",10,65,35,2,"no","up","Left",0,"FL","FS",13,"up",483,1,"Students10"
50,0.413811564445496,0.512710213661194,-41.2908706665039,135.618545532227,42.5247840881348,367.002,2608.998,1579.993,"Pictures_Onset",1560.998,"10","Healthy",10,65,35,2,"no","up","Left",0,"FL","FS",13,"up",483,1,"Students10"
51,0.631928563117981,0.484857141971588,61.5666618347168,142.542144775391,45.0442848205566,215.988,1852.006,695.001,"Pictures_Onset",804.006,"10","Healthy",10,65,35,3,"no","down","Right",0,"FS","FL",13,"down",477,1,"Students10"
51,0.363757580518723,0.494818210601807,-64.90576171875,140.055435180664,44.138484954834,166.003,2450.995,1293.99,"Pictures_Onset",1402.995,"10","Sugary",10,65,35,3,"no","down","Right",0,"FS","FL",13,"down",477,1,"Students10"
51,0.554694473743439,0.496944427490234,25.2061100006104,139.515548706055,43.9419441223145,184,2800,1642.995,"Pictures_Onset",1752,"10","Healthy",10,65,35,3,"no","down","Right",0,"FS","FL",13,"down",477,1,"Students10"
53,0.386944442987442,0.494361132383347,-53.9724998474121,140.192489624023,44.1891632080078,183.002,1422.003,399.001,"Pictures_Onset",374.003,"10","Sugary",10,65,35,2,"no","up","Left",1,"FS","FL",14,"up",507,1,"Students10"
53,0.404421091079712,0.520596504211426,-45.6880683898926,133.661407470703,41.8119277954102,298.995,1639.002,616,"Pictures_Onset",591.002,"10","Sugary",10,65,35,2,"no","up","Left",1,"FS","FL",14,"up",507,1,"Students10"
53,0.616244435310364,0.47684445977211,54.1779937744141,144.55110168457,45.7748870849609,232.998,2153.997,1130.995,"Pictures_Onset",1105.997,"10","Healthy",10,65,35,2,"no","up","Left",1,"FS","FL",14,"up",507,1,"Students10"
53,0.629000008106232,0.474142849445343,60.1995239257812,145.212692260742,46.0142860412598,567.001,2419.994,1396.992,"Pictures_Onset",1371.994,"10","Healthy",10,65,35,2,"no","up","Left",1,"FS","FL",14,"up",507,1,"Students10"
55,0.392125010490417,0.488833338022232,-51.5162467956543,141.530822753906,44.6766662597656,115.994,1854.003,832,"Pictures_Onset",806.003,"10","Sugary",10,65,35,4,"no","down","Right",0,"FS","FL",14,"down",521,1,"Students10"
55,0.622375011444092,0.497062504291534,57.048957824707,139.523956298828,43.9450035095215,248.998,2087.002,1064.999,"Pictures_Onset",1039.002,"10","Healthy",10,65,35,4,"no","down","Right",0,"FS","FL",14,"down",521,1,"Students10"
56,0.36639678478241,0.483142852783203,-63.6506233215332,142.940338134766,45.1885681152344,331.994,1464.998,368,"Pictures_Onset",416.998,"10","Healthy",10,65,35,1,"no","down","Right",1,"FL","FS",14,"down",396,1,"Students10"
56,0.610456109046936,0.508824527263641,51.4947395324707,136.588790893555,42.8768424987793,299.994,2128.998,1032,"Pictures_Onset",1080.998,"10","Sugary",10,65,35,1,"no","down","Right",1,"FL","FS",14,"down",396,1,"Students10"
56,0.640233278274536,0.521999955177307,65.4496612548828,133.283996582031,41.6726684570312,149.99,2463.002,1366.004,"Pictures_Onset",1415.002,"10","Sugary",10,65,35,1,"no","down","Right",1,"FL","FS",14,"down",396,1,"Students10"
57,0.372250020503998,0.479291647672653,-60.8429145812988,143.932495117188,45.5500030517578,116.992,1472.998,382.003,"Pictures_Onset",424.998,"10","Sugary",10,65,35,3,"no","up","Left",1,"FS","FL",15,"up",492,1,"Students10"
57,0.553102552890778,0.49553844332695,24.4158954620361,139.876403808594,44.0733299255371,200,1952.998,862.003,"Pictures_Onset",904.998,"10","Healthy",10,65,35,3,"no","up","Left",1,"FS","FL",15,"up",492,1,"Students10"
57,0.398653328418732,0.472466647624969,-48.4537315368652,145.604263305664,46.1583938598633,400,2335.002,1244.007,"Pictures_Onset",1287.002,"10","Sugary",10,65,35,3,"no","up","Left",1,"FS","FL",15,"up",492,1,"Students10"
58,0.378800004720688,0.481844395399094,-57.8102226257324,143.29931640625,45.3202285766602,232,1305.997,284.007,"Pictures_Onset",257.997,"10","Healthy",10,65,35,4,"no","up","Left",0,"FL","FS",15,"up",520,1,"Students10"
58,0.394173949956894,0.490855127573013,-50.5370979309082,141.052169799805,44.501594543457,366.003,1571.994,550.004,"Pictures_Onset",523.994,"10","Healthy",10,65,35,4,"no","up","Left",0,"FL","FS",15,"up",520,1,"Students10"
58,0.616345286369324,0.488440483808517,54.2583274841309,141.638809204102,44.7154808044434,448.998,2291.994,1270.004,"Pictures_Onset",1243.994,"10","Sugary",10,65,35,4,"no","up","Left",0,"FL","FS",15,"up",520,1,"Students10"
58,0.392233341932297,0.491899967193604,-51.4786682128906,140.791015625,44.4063339233398,149.99,2824,1802.01,"Pictures_Onset",1776,"10","Healthy",10,65,35,4,"no","up","Left",0,"FL","FS",15,"up",520,1,"Students10"
59,0.634701788425446,0.501842141151428,62.8721084594727,138.291213989258,43.4975471496582,298.995,1966.003,930.995,"Pictures_Onset",918.003,"10","Healthy",10,65,35,1,"no","down","Right",0,"FS","FL",15,"down",449,1,"Students10"
59,0.634857177734375,0.517714321613312,62.9861869812012,134.400970458984,42.081428527832,100.006,2297.997,1262.989,"Pictures_Onset",1249.997,"10","Healthy",10,65,35,1,"no","down","Right",0,"FS","FL",15,"down",449,1,"Students10"
59,0.431607812643051,0.498862773180008,-32.9127464294434,139.069427490234,43.7798042297363,264.998,2482.01,1447.002,"Pictures_Onset",1434.01,"10","Sugary",10,65,35,1,"no","down","Right",0,"FS","FL",15,"down",449,1,"Students10"
61,0.614761888980865,0.482619047164917,53.4535713195801,143.085006713867,45.242618560791,216.998,1311.002,282.01,"Pictures_Onset",263.002,"10","Healthy",10,65,35,4,"no","down","Left",1,"FS","FL",16,"down",532,1,"Students10"
61,0.413625031709671,0.487125009298325,-41.4654159545898,141.930419921875,44.8199996948242,117.005,2009.997,981.005,"Pictures_Onset",961.997,"10","Sugary",10,65,35,4,"no","down","Left",1,"FS","FL",16,"down",532,1,"Students10"
61,0.5809166431427,0.498638868331909,37.5002784729004,139.14111328125,43.8069458007812,184,2192.998,1164.006,"Pictures_Onset",1144.998,"10","Healthy",10,65,35,4,"no","down","Left",1,"FS","FL",16,"down",532,1,"Students10"
64,0.609812557697296,0.472166687250137,51.1029243469238,145.701675415039,46.1933326721191,248,1673.997,534.003,"Pictures_Onset",625.997,"10","Sugary",10,65,35,3,"no","up","Right",1,"FL","FS",16,"down",403,0,"Students10"
64,0.607194423675537,0.47797217965126,49.890552520752,144.191101074219,45.6450042724609,184,1954.995,815.001,"Pictures_Onset",906.995,"10","Sugary",10,65,35,3,"no","up","Right",1,"FL","FS",16,"down",403,0,"Students10"
64,0.574133276939392,0.481133341789246,34.3037757873535,143.469543457031,45.3824462890625,232,2171.994,1032,"Pictures_Onset",1123.994,"10","Sugary",10,65,35,3,"no","up","Right",1,"FL","FS",16,"down",403,0,"Students10"
64,0.573245227336884,0.490137279033661,33.893726348877,141.218627929688,44.5626487731934,549.991,2438.003,1298.009,"Pictures_Onset",1390.003,"10","Sugary",10,65,35,3,"no","up","Right",1,"FL","FS",16,"down",403,0,"Students10"
65,0.641393899917603,0.482151538133621,66.1357650756836,143.236679077148,45.2963638305664,166.003,1800,775.002,"Pictures_Onset",752,"10","Healthy",10,65,35,1,"no","down","Left",1,"FS","FL",17,"down",466,1,"Students10"
65,0.615253269672394,0.515279948711395,53.7067985534668,134.953079223633,42.2819976806641,399.002,2016,991.002,"Pictures_Onset",968,"10","Healthy",10,65,35,1,"no","down","Left",1,"FS","FL",17,"down",466,1,"Students10"
65,0.396357119083405,0.484380960464478,-49.5888137817383,142.673568725586,45.0923805236816,216.998,2497.997,1472.999,"Pictures_Onset",1449.997,"10","Sugary",10,65,35,1,"no","down","Left",1,"FS","FL",17,"down",466,1,"Students10"
65,0.372166663408279,0.497583329677582,-60.9341659545898,139.356674194336,43.8862495422363,116.992,2798.003,1773.005,"Pictures_Onset",1750.003,"10","Sugary",10,65,35,1,"no","down","Left",1,"FS","FL",17,"down",466,1,"Students10"
66,0.384133338928223,0.484977781772614,-55.2771072387695,142.501358032227,45.0297737121582,232,1274.995,248.998,"Pictures_Onset",226.995,"10","Healthy",10,65,35,2,"no","down","Left",0,"FL","FS",17,"down",541,1,"Students10"
66,0.621039211750031,0.486156851053238,56.4345054626465,142.221969604492,44.9272537231445,265.997,1873.997,848,"Pictures_Onset",825.997,"10","Sugary",10,65,35,2,"no","down","Left",0,"FL","FS",17,"down",541,1,"Students10"
66,0.628250002861023,0.466499984264374,59.8379173278809,147.102081298828,46.7033309936523,115.008,2523.994,1497.997,"Pictures_Onset",1475.994,"10","Sugary",10,65,35,2,"no","down","Left",0,"FL","FS",17,"down",541,1,"Students10"
69,0.618757605552673,0.472363591194153,55.3584861755371,145.641494750977,46.1721229553223,165.99,1650.01,617.012,"Pictures_Onset",602.01,"10","Healthy",10,65,35,2,"no","down","Left",1,"FS","FL",18,"down",601,1,"Students10"
69,0.422100007534027,0.477383375167847,-37.3728294372559,144.405166625977,45.7216682434082,315.994,1916.006,883.008,"Pictures_Onset",868.006,"10","Sugary",10,65,35,2,"no","down","Left",1,"FS","FL",18,"down",601,1,"Students10"
69,0.608487188816071,0.492487162351608,50.6097450256348,140.610778808594,44.3412857055664,200.013,2297.997,1264.999,"Pictures_Onset",1249.997,"10","Healthy",10,65,35,2,"no","down","Left",1,"FS","FL",18,"down",601,1,"Students10"
69,0.610023856163025,0.488571375608444,51.2922630310059,141.623245239258,44.7107124328613,448.998,2531.008,1498.01,"Pictures_Onset",1483.008,"10","Healthy",10,65,35,2,"no","down","Left",1,"FS","FL",18,"down",601,1,"Students10"
71,0.408515095710754,0.486999988555908,-43.8051528930664,142.011520385742,44.8509140014648,166.003,1620.992,598.003,"Pictures_Onset",572.992,"10","Sugary",10,65,35,4,"no","up","Right",0,"FS","FL",18,"up",406,1,"Students10"
73,0.401685178279877,0.49570369720459,-47.0568466186523,139.854431152344,44.0661125183105,282.995,1849.997,812.007,"Pictures_Onset",801.997,"10","Sugary",10,65,35,3,"no","down","Left",1,"FS","FL",19,"down",547,1,"Students10"
74,0.384023815393448,0.501023828983307,-55.3409461975098,138.536178588867,43.5850028991699,216,1604.006,583.001,"Pictures_Onset",556.006,"10","Healthy",10,65,35,4,"no","down","Left",0,"FL","FS",19,"down",498,1,"Students10"
74,0.624149918556213,0.505466639995575,57.9713363647461,137.420822143555,43.179328918457,316.006,1904,882.995,"Pictures_Onset",856,"10","Sugary",10,65,35,4,"no","down","Left",0,"FL","FS",19,"down",498,1,"Students10"
76,0.632952392101288,0.491587311029434,62.0399971008301,140.866180419922,44.4346008300781,332.992,1640.998,616,"Pictures_Onset",592.998,"10","Sugary",10,65,35,2,"no","up","Right",1,"FL","FS",19,"up",613,1,"Students10"
76,0.382939368486404,0.512515127658844,-55.9212074279785,135.639694213867,42.5327262878418,167.002,2821.99,1796.992,"Pictures_Onset",1773.99,"10","Healthy",10,65,35,2,"no","up","Right",1,"FL","FS",19,"up",613,1,"Students10"
77,0.620964348316193,0.48778572678566,56.3808364868164,141.837493896484,44.7872619628906,449.997,2522.995,1497.997,"Pictures_Onset",1474.995,"10","Healthy",10,65,35,4,"no","down","Left",1,"FS","FL",20,"down",462,1,"Students10"
79,0.623969733715057,0.487515181303024,57.7887916564941,141.896667480469,44.810302734375,166.003,1827.994,799.002,"Pictures_Onset",779.994,"10","Healthy",10,65,35,2,"no","up","Right",0,"FS","FL",20,"up",461,1,"Students10"
79,0.618151485919952,0.517545461654663,55.1103057861328,134.422424316406,42.0881843566895,166.003,2260.992,1232,"Pictures_Onset",1212.992,"10","Healthy",10,65,35,2,"no","up","Right",0,"FS","FL",20,"up",461,1,"Students10"
80,0.384023815393448,0.481214284896851,-55.3259506225586,143.436645507812,45.369758605957,216,1452.006,416,"Pictures_Onset",404.006,"10","Healthy",10,65,35,3,"no","up","Right",1,"FL","FS",20,"up",448,1,"Students10"
80,0.614791691303253,0.502291679382324,53.4587554931641,138.218322753906,43.4716682434082,114.995,2106.01,1070.004,"Pictures_Onset",1058.01,"10","Sugary",10,65,35,3,"no","up","Right",1,"FL","FS",20,"up",448,1,"Students10"
80,0.414979159832001,0.506562471389771,-40.7229194641113,137.141662597656,43.0779190063477,250.01,2288,1251.994,"Pictures_Onset",1240,"10","Healthy",10,65,35,3,"no","up","Right",1,"FL","FS",20,"up",448,1,"Students10"
80,0.584636330604553,0.52006059885025,39.2763595581055,133.813934326172,41.8689460754395,349.005,2622.003,1585.997,"Pictures_Onset",1574.003,"10","Sugary",10,65,35,3,"no","up","Right",1,"FL","FS",20,"up",448,1,"Students10"
