"trial_id","sx","sy","px","py","pz","duration","timestamp","trial_onset","label","label_onset","subject_nr.x","AOI_visited","subject_nr.y","fat_craving","sugar_craving","Block","practice","Arrow_Direction","Arrow_Position","Congruence","Left_Picture","Right_Picture","Pair_Number","response","response_time","accuracy","part_ID"
1,0.407181829214096,0.474090933799744,-43.3157539367676,144.392730712891,45.7181816101074,165.991,1310.003,283.008,"Pictures_Onset",209.997,"08","Salty",8,50,55,1,"no","up","Left",1,"FF","FL",1,"up",595,1,"Students08"
1,0.615507185459137,0.481333345174789,56.0340538024902,142.546966552734,45.0471038818359,367.001,1559.002,532.007,"Pictures_Onset",458.996,"08","Healthy",8,50,55,1,"no","up","Left",1,"FF","FL",1,"up",595,1,"Students08"
1,0.651000022888184,0.467777788639069,72.8962936401367,145.917419433594,46.2737045288086,131.994,1976,949.005,"Pictures_Onset",875.994,"08","Healthy",8,50,55,1,"no","up","Left",1,"FF","FL",1,"up",595,1,"Students08"
1,0.603677809238434,0.471666693687439,50.3768882751465,144.981887817383,45.9315605163574,481.997,2325.005,1298.01,"Pictures_Onset",1224.999,"08","Healthy",8,50,55,1,"no","up","Left",1,"FF","FL",1,"up",595,1,"Students08"
1,0.601296305656433,0.481259226799011,49.2737007141113,142.541854858398,45.043701171875,133.005,2840.998,1814.003,"Pictures_Onset",1740.992,"08","Healthy",8,50,55,1,"no","up","Left",1,"FF","FL",1,"up",595,1,"Students08"
2,0.401133358478546,0.462500005960464,-46.1853332519531,147.275009155273,46.7663345336914,149.005,1384.998,350.003,"Pictures_Onset",284.992,"08","Healthy",8,50,55,2,"no","up","Left",0,"FL","FF",1,"up",491,1,"Students08"
2,0.618388891220093,0.483981490135193,57.4687042236328,141.861129760742,44.7966728210449,282.996,1600.998,566.003,"Pictures_Onset",500.992,"08","Salty",8,50,55,2,"no","up","Left",0,"FL","FF",1,"up",491,1,"Students08"
2,0.621833324432373,0.500999987125397,59.0283279418945,137.648330688477,43.2616653442383,217.011,1916.992,881.997,"Pictures_Onset",816.986,"08","Salty",8,50,55,2,"no","up","Left",0,"FL","FF",1,"up",491,1,"Students08"
2,0.37098240852356,0.471228033304214,-60.5706977844238,145.062637329102,45.9626312255859,299.008,2266.995,1232,"Pictures_Onset",1166.989,"08","Healthy",8,50,55,2,"no","up","Left",0,"FL","FF",1,"up",491,1,"Students08"
2,0.358666658401489,0.464727282524109,-66.4575729370117,146.716369628906,46.5650024414062,350.003,2599.002,1564.007,"Pictures_Onset",1498.996,"08","Healthy",8,50,55,2,"no","up","Left",0,"FL","FF",1,"up",491,1,"Students08"
3,0.395627439022064,0.469058752059937,-48.8535308837891,145.650772094727,46.1758766174316,265.997,1256,233.997,"Pictures_Onset",155.994,"08","Salty",8,50,55,3,"no","down","Right",0,"FF","FL",1,"down",545,1,"Students08"
3,0.62769228219986,0.483128279447556,61.7999954223633,142.087432861328,44.8787231445312,198.989,1588.006,566.003,"Pictures_Onset",488,"08","Healthy",8,50,55,3,"no","down","Right",0,"FF","FL",1,"down",545,1,"Students08"
3,0.637479186058044,0.470791697502136,66.4795761108398,145.199584960938,46.011661529541,250.995,1887.002,864.999,"Pictures_Onset",786.996,"08","Healthy",8,50,55,3,"no","down","Right",0,"FF","FL",1,"down",545,1,"Students08"
3,0.384022235870361,0.473800003528595,-54.3839988708496,144.46044921875,45.7428855895996,232,2237.005,1215.002,"Pictures_Onset",1136.999,"08","Salty",8,50,55,3,"no","down","Right",0,"FF","FL",1,"down",545,1,"Students08"
3,0.386000037193298,0.474000036716461,-53.2816696166992,144.398330688477,45.7200012207031,183.002,2504,1481.997,"Pictures_Onset",1403.994,"08","Salty",8,50,55,3,"no","down","Right",0,"FF","FL",1,"down",545,1,"Students08"
3,0.388874977827072,0.454750031232834,-52.011043548584,149.218109130859,47.4752044677734,248.999,2736.998,1714.995,"Pictures_Onset",1636.992,"08","Salty",8,50,55,3,"no","down","Right",0,"FF","FL",1,"down",545,1,"Students08"
4,0.375512778759003,0.505461573600769,-58.4164085388184,136.470245361328,42.834358215332,199.001,1249.997,200,"Pictures_Onset",149.991,"08","Healthy",8,50,55,4,"no","down","Right",1,"FL","FF",1,"down",512,1,"Students08"
4,0.604133307933807,0.489666640758514,50.6080017089844,140.425003051758,44.2750015258789,149.005,1514.995,464.998,"Pictures_Onset",414.989,"08","Salty",8,50,55,4,"no","down","Right",1,"FL","FF",1,"down",512,1,"Students08"
4,0.408235311508179,0.477215707302094,-42.8058776855469,143.610580444336,45.4329452514648,267.008,2163.994,1113.997,"Pictures_Onset",1063.988,"08","Healthy",8,50,55,4,"no","down","Right",1,"FL","FF",1,"down",512,1,"Students08"
4,0.625999927520752,0.50687712430954,61.0228004455566,136.118072509766,42.7059669494629,299.994,2512.998,1463.001,"Pictures_Onset",1412.992,"08","Salty",8,50,55,4,"no","down","Right",1,"FL","FF",1,"down",512,1,"Students08"
5,0.395800024271011,0.485099971294403,-48.753662109375,141.599334716797,44.7029991149902,150.003,1255.002,232,"Pictures_Onset",154.996,"08","Salty",8,50,55,2,"no","up","Left",1,"FF","FL",2,"up",531,1,"Students08"
5,0.626869559288025,0.48828974366188,61.4240608215332,140.801605224609,44.4088439941406,365.005,1472,448.998,"Pictures_Onset",371.994,"08","Healthy",8,50,55,2,"no","up","Left",1,"FF","FL",2,"up",531,1,"Students08"
5,0.63679164648056,0.470180422067642,66.1747207641602,145.363204956055,46.0708312988281,382.003,1871.002,848,"Pictures_Onset",770.996,"08","Healthy",8,50,55,2,"no","up","Left",1,"FF","FL",2,"up",531,1,"Students08"
5,0.610654652118683,0.490845263004303,53.7055969238281,140.137145996094,44.169994354248,448,2288,1264.998,"Pictures_Onset",1187.994,"08","Healthy",8,50,55,2,"no","up","Left",1,"FF","FL",2,"up",531,1,"Students08"
5,0.654692351818085,0.464256405830383,74.6638412475586,146.834869384766,46.607177734375,200,2785.997,1762.995,"Pictures_Onset",1685.991,"08","Healthy",8,50,55,2,"no","up","Left",1,"FF","FL",2,"up",531,1,"Students08"
6,0.382866710424423,0.468250036239624,-54.8570022583008,145.828994750977,46.2398338317871,316.006,1236.992,215.002,"Pictures_Onset",136.986,"08","Healthy",8,50,55,3,"no","up","Left",0,"FL","FF",2,"up",532,1,"Students08"
6,0.361861109733582,0.472777843475342,-64.9255447387695,144.714553833008,45.8341674804688,383.001,1585.997,564.007,"Pictures_Onset",485.991,"08","Healthy",8,50,55,3,"no","up","Left",0,"FL","FF",2,"up",532,1,"Students08"
6,0.384258329868317,0.469774901866913,-54.2282524108887,145.442855834961,46.0997467041016,648.999,2002.995,981.005,"Pictures_Onset",902.989,"08","Healthy",8,50,55,3,"no","up","Left",0,"FL","FF",2,"up",532,1,"Students08"
6,0.62443333864212,0.471933305263519,60.2696647644043,144.907012939453,45.9046669006348,150.004,2733.99,1712,"Pictures_Onset",1633.984,"08","Salty",8,50,55,3,"no","up","Left",0,"FL","FF",2,"up",532,1,"Students08"
7,0.379619061946869,0.516190528869629,-56.4484176635742,133.792205810547,41.860481262207,334.003,1235.994,199.002,"Pictures_Onset",135.988,"08","Salty",8,50,55,4,"no","down","Right",0,"FF","FL",2,"down",482,1,"Students08"
7,0.620511174201965,0.503133356571198,58.3902168273926,137.057556152344,43.0480003356934,233.997,1634.995,598.003,"Pictures_Onset",534.989,"08","Healthy",8,50,55,4,"no","down","Right",0,"FF","FL",2,"down",482,1,"Students08"
7,0.623051345348358,0.49774357676506,59.5676918029785,138.40461730957,43.5374374389648,199.002,1901.99,864.998,"Pictures_Onset",801.984,"08","Healthy",8,50,55,4,"no","down","Right",0,"FF","FL",2,"down",482,1,"Students08"
7,0.407824575901031,0.504105269908905,-42.9843826293945,136.833862304688,42.9650955200195,299.994,2168,1131.008,"Pictures_Onset",1067.994,"08","Salty",8,50,55,4,"no","down","Right",0,"FF","FL",2,"down",482,1,"Students08"
7,0.36833330988884,0.500488936901093,-61.8017807006836,137.706451416016,43.2842216491699,231.987,2518.003,1481.011,"Pictures_Onset",1417.997,"08","Salty",8,50,55,4,"no","down","Right",0,"FF","FL",2,"down",482,1,"Students08"
7,0.356358975172043,0.50102561712265,-67.4961547851562,137.569229125977,43.2338447570801,200,2784,1747.008,"Pictures_Onset",1683.994,"08","Salty",8,50,55,4,"no","down","Right",0,"FF","FL",2,"down",482,1,"Students08"
8,0.370078414678574,0.480941146612167,-60.99755859375,142.659194946289,45.0864639282227,549.005,1290.995,264.998,"Pictures_Onset",190.989,"08","Healthy",8,50,55,1,"no","down","Right",1,"FL","FF",2,"down",456,1,"Students08"
8,0.603074073791504,0.487629622220993,50.0959281921387,140.979629516602,44.4759254455566,133.004,2139.994,1113.997,"Pictures_Onset",1039.988,"08","Salty",8,50,55,1,"no","down","Right",1,"FL","FF",2,"down",456,1,"Students08"
8,0.362833321094513,0.48293337225914,-64.4598388671875,142.143325805664,44.8998374938965,315.993,2373.005,1347.008,"Pictures_Onset",1272.999,"08","Healthy",8,50,55,1,"no","down","Right",1,"FL","FF",2,"down",456,1,"Students08"
8,0.357882291078568,0.489215612411499,-66.8027420043945,140.573333740234,44.3268661499023,265.997,2721.997,1696,"Pictures_Onset",1621.991,"08","Healthy",8,50,55,1,"no","down","Right",1,"FL","FF",2,"down",456,1,"Students08"
9,0.391363650560379,0.467212110757828,-50.8490943908691,146.119400024414,46.3457565307617,166.004,1264.998,233.996,"Pictures_Onset",164.992,"08","Salty",8,50,55,3,"no","up","Left",1,"FF","FL",3,"up",480,1,"Students08"
9,0.638833284378052,0.468733370304108,67.1056671142578,145.71533203125,46.1973342895508,150.003,1796.992,765.99,"Pictures_Onset",696.986,"08","Healthy",8,50,55,3,"no","up","Left",1,"FF","FL",3,"up",480,1,"Students08"
9,0.603666663169861,0.497936487197876,50.3904800415039,138.360488891602,43.5222244262695,332.006,1996.992,965.99,"Pictures_Onset",896.986,"08","Healthy",8,50,55,3,"no","up","Left",1,"FF","FL",3,"up",480,1,"Students08"
9,0.379999995231628,0.479555547237396,-56.1414833068848,142.995544433594,45.2088851928711,133.005,2412.992,1381.99,"Pictures_Onset",1312.986,"08","Salty",8,50,55,3,"no","up","Left",1,"FF","FL",3,"up",480,1,"Students08"
9,0.379000008106232,0.474299997091293,-56.7263298034668,144.349655151367,45.7026672363281,150.003,2578.995,1547.993,"Pictures_Onset",1478.989,"08","Salty",8,50,55,3,"no","up","Left",1,"FF","FL",3,"up",480,1,"Students08"
9,0.368714302778244,0.470285683870316,-61.6047630310059,145.340484619141,46.063102722168,216,2761.997,1730.995,"Pictures_Onset",1661.991,"08","Salty",8,50,55,3,"no","up","Left",1,"FF","FL",3,"up",480,1,"Students08"
10,0.426190465688705,0.502476274967194,-34.2569046020508,137.210708618164,43.1040458679199,216.998,1021.005,0,"Pictures_Onset",-79.0010000000001,"08","Healthy",8,50,55,4,"no","up","Left",0,"FL","FF",3,"up",530,1,"Students08"
10,0.385205119848251,0.503743588924408,-53.7123069763184,136.915893554688,42.9969215393066,199.002,1304.998,283.993,"Pictures_Onset",204.992,"08","Healthy",8,50,55,4,"no","up","Left",0,"FL","FF",3,"up",530,1,"Students08"
10,0.626458346843719,0.497635424137115,61.2457275390625,138.447402954102,43.5540580749512,516.007,1586.995,565.99,"Pictures_Onset",486.989,"08","Salty",8,50,55,4,"no","up","Left",0,"FL","FF",3,"up",530,1,"Students08"
10,0.651313722133636,0.502274453639984,73.0774536132812,137.284912109375,43.1307792663574,266.995,2136,1114.995,"Pictures_Onset",1035.994,"08","Salty",8,50,55,4,"no","up","Left",0,"FL","FF",3,"up",530,1,"Students08"
10,0.392849981784821,0.491033315658569,-50.1256713867188,140.100677490234,44.1548347473145,317.005,2536,1514.995,"Pictures_Onset",1435.994,"08","Healthy",8,50,55,4,"no","up","Left",0,"FL","FF",3,"up",530,1,"Students08"
11,0.423272728919983,0.461939364671707,-35.5827293395996,147.441802978516,46.8269691467285,167.001,1081.997,0,"Pictures_Onset",-18.009,"08","Salty",8,50,55,1,"no","down","Right",0,"FF","FL",3,"down",453,1,"Students08"
11,0.393928587436676,0.476142853498459,-49.6457138061523,143.866195678711,45.5269050598145,215.002,1282.995,200.998,"Pictures_Onset",182.989,"08","Salty",8,50,55,1,"no","down","Right",0,"FF","FL",3,"down",453,1,"Students08"
11,0.6296666264534,0.491466641426086,62.7737846374512,139.992446899414,44.1160011291504,232,1582.003,500.006,"Pictures_Onset",481.997,"08","Healthy",8,50,55,1,"no","down","Right",0,"FF","FL",3,"down",453,1,"Students08"
11,0.645962953567505,0.46146297454834,70.5472106933594,147.554992675781,46.8692588806152,283.993,1847.002,765.005,"Pictures_Onset",746.996,"08","Healthy",8,50,55,1,"no","down","Right",0,"FF","FL",3,"down",453,1,"Students08"
11,0.604666709899902,0.52657413482666,50.8327789306641,131.150573730469,40.8983345031738,283.008,2179.994,1097.997,"Pictures_Onset",1079.988,"08","Healthy",8,50,55,1,"no","down","Right",0,"FF","FL",3,"down",453,1,"Students08"
11,0.603078365325928,0.535784244537354,50.1247062683105,128.849594116211,40.0601997375488,266.995,2496,1414.003,"Pictures_Onset",1395.994,"08","Healthy",8,50,55,1,"no","down","Right",0,"FF","FL",3,"down",453,1,"Students08"
11,0.609633445739746,0.413833320140839,53.1653327941895,159.53466796875,51.22900390625,150.003,2828.992,1746.995,"Pictures_Onset",1728.986,"08","Healthy",8,50,55,1,"no","down","Right",0,"FF","FL",3,"down",453,1,"Students08"
12,0.388649940490723,0.478350013494492,-52.1316719055176,143.276000976562,45.3109970092773,315.008,1252.992,216.998,"Pictures_Onset",152.986,"08","Healthy",8,50,55,2,"no","down","Right",1,"FL","FF",3,"down",532,1,"Students08"
12,0.605948746204376,0.477153807878494,51.410514831543,143.614105224609,45.4333305358887,200,1634.995,599.001,"Pictures_Onset",534.989,"08","Salty",8,50,55,2,"no","down","Right",1,"FL","FF",3,"down",532,1,"Students08"
12,0.647087752819061,0.468754380941391,71.0857849121094,145.740188598633,46.2089462280273,298.995,1902.003,866.009,"Pictures_Onset",801.997,"08","Salty",8,50,55,2,"no","down","Right",1,"FL","FF",3,"down",532,1,"Students08"
12,0.399619102478027,0.442499935626984,-46.892147064209,152.326431274414,48.605712890625,216,2316.992,1280.998,"Pictures_Onset",1216.986,"08","Healthy",8,50,55,2,"no","down","Right",1,"FL","FF",3,"down",532,1,"Students08"
12,0.375999957323074,0.480424284934998,-58.1733283996582,142.755142211914,45.1215171813965,165.005,2600.998,1565.004,"Pictures_Onset",1500.992,"08","Healthy",8,50,55,2,"no","down","Right",1,"FL","FF",3,"down",532,1,"Students08"
12,0.362361073493958,0.451833367347717,-64.6002731323242,149.97444152832,47.7477760314941,181.99,2800,1764.006,"Pictures_Onset",1699.994,"08","Healthy",8,50,55,2,"no","down","Right",1,"FL","FF",3,"down",532,1,"Students08"
13,0.409244418144226,0.469466656446457,-42.3117752075195,145.553558349609,46.1402168273926,232,1040.998,16.998,"Pictures_Onset",-59.008,"08","Salty",8,50,55,4,"no","up","Left",1,"FF","FL",4,"up",467,1,"Students08"
13,0.383460223674774,0.503301560878754,-54.565242767334,137.013641357422,43.0317497253418,334.003,1305.997,281.997,"Pictures_Onset",205.991,"08","Salty",8,50,55,4,"no","up","Left",1,"FF","FL",4,"up",467,1,"Students08"
13,0.356490194797516,0.524294078350067,-67.3811721801758,131.708435058594,41.1011734008789,266.009,1705.997,681.997,"Pictures_Onset",605.991,"08","Salty",8,50,55,4,"no","up","Left",1,"FF","FL",4,"up",467,1,"Students08"
13,0.37461906671524,0.537333309650421,-58.9161911010742,128.417861938477,39.9033279418945,216,2005.005,981.005,"Pictures_Onset",904.999,"08","Salty",8,50,55,4,"no","up","Left",1,"FF","FL",4,"up",467,1,"Students08"
13,0.621666669845581,0.499866664409637,58.9049987792969,137.835006713867,43.3313331604004,149.005,2304.998,1280.998,"Pictures_Onset",1204.992,"08","Healthy",8,50,55,4,"no","up","Left",1,"FF","FL",4,"up",467,1,"Students08"
13,0.65233325958252,0.504384577274323,73.6038360595703,136.684112548828,42.9128227233887,200.012,2603.994,1579.994,"Pictures_Onset",1503.988,"08","Healthy",8,50,55,4,"no","up","Left",1,"FF","FL",4,"up",467,1,"Students08"
13,0.378916680812836,0.46941664814949,-56.8095855712891,145.529998779297,46.1333312988281,115.993,2887.002,1863.002,"Pictures_Onset",1786.996,"08","Salty",8,50,55,4,"no","up","Left",1,"FF","FL",4,"up",467,1,"Students08"
14,0.619304299354553,0.491579681634903,57.7079772949219,139.988265991211,44.114200592041,367.001,1329.997,298.995,"Pictures_Onset",229.991,"08","Salty",8,50,55,1,"no","up","Left",0,"FL","FF",4,"up",548,1,"Students08"
14,0.644435882568359,0.50876921415329,69.8320465087891,135.660781860352,42.5405120849609,199.001,1729.997,698.995,"Pictures_Onset",629.991,"08","Salty",8,50,55,1,"no","up","Left",0,"FL","FF",4,"up",548,1,"Students08"
14,0.623333334922791,0.520399987697601,59.8343315124512,132.723327636719,41.4710006713867,150.003,2011.994,980.992,"Pictures_Onset",911.988,"08","Salty",8,50,55,1,"no","up","Left",0,"FL","FF",4,"up",548,1,"Students08"
14,0.361861139535904,0.50680547952652,-64.894172668457,136.127502441406,42.7097206115723,183.002,2245.99,1214.988,"Pictures_Onset",1145.984,"08","Healthy",8,50,55,1,"no","up","Left",0,"FL","FF",4,"up",548,1,"Students08"
14,0.390577763319016,0.50380003452301,-51.1868896484375,136.896667480469,42.9895553588867,233.997,2462.003,1431.001,"Pictures_Onset",1361.997,"08","Healthy",8,50,55,1,"no","up","Left",0,"FL","FF",4,"up",548,1,"Students08"
14,0.379177778959274,0.487800061702728,-56.6197776794434,140.945098876953,44.4631118774414,233.997,2728,1696.998,"Pictures_Onset",1627.994,"08","Healthy",8,50,55,1,"no","up","Left",0,"FL","FF",4,"up",548,1,"Students08"
15,0.395666629076004,0.488785713911057,-48.7561912536621,140.655227661133,44.3571434020996,215.002,1296.998,266.995,"Pictures_Onset",196.992,"08","Salty",8,50,55,2,"no","down","Right",0,"FF","FL",4,"down",581,1,"Students08"
15,0.620825409889221,0.485682547092438,58.543327331543,141.440170288086,44.6417427062988,333.99,1711.002,680.999,"Pictures_Onset",610.996,"08","Healthy",8,50,55,2,"no","down","Right",0,"FF","FL",4,"down",581,1,"Students08"
15,0.641076922416687,0.470641016960144,68.2141036987305,145.252059936523,46.0305137634277,199.002,2078.003,1048,"Pictures_Onset",977.997,"08","Healthy",8,50,55,2,"no","down","Right",0,"FF","FL",4,"down",581,1,"Students08"
15,0.608686208724976,0.471470594406128,52.736270904541,145.016693115234,45.9439239501953,266.01,2410.995,1380.992,"Pictures_Onset",1310.989,"08","Healthy",8,50,55,2,"no","down","Right",0,"FF","FL",4,"down",581,1,"Students08"
15,0.640312492847443,0.457541674375534,67.7800064086914,148.50895690918,47.2152061462402,249.996,2727.002,1696.999,"Pictures_Onset",1626.996,"08","Healthy",8,50,55,2,"no","down","Right",0,"FF","FL",4,"down",581,1,"Students08"
16,0.389452308416367,0.45911905169487,-51.8535690307617,148.134048461914,47.0795288085938,217.997,1408.998,381.004,"Pictures_Onset",308.992,"08","Healthy",8,50,55,3,"no","down","Right",1,"FL","FF",4,"down",517,1,"Students08"
16,0.388074040412903,0.482444435358047,-52.429630279541,142.234069824219,44.9314765930176,133.005,1658.995,631.001,"Pictures_Onset",558.989,"08","Healthy",8,50,55,3,"no","down","Right",1,"FL","FF",4,"down",517,1,"Students08"
16,0.619771957397461,0.46864914894104,58.0228080749512,145.74772644043,46.211051940918,300.006,1875.994,848,"Pictures_Onset",775.988,"08","Salty",8,50,55,3,"no","down","Right",1,"FL","FF",4,"down",517,1,"Students08"
16,0.393877238035202,0.474684208631516,-49.5966606140137,144.230514526367,45.6570167541504,298.995,2408,1380.006,"Pictures_Onset",1307.994,"08","Healthy",8,50,55,3,"no","down","Right",1,"FL","FF",4,"down",517,1,"Students08"
16,0.372777849435806,0.463466674089432,-59.621997833252,147.064880371094,46.6913375854492,233.997,2740.992,1712.998,"Pictures_Onset",1640.986,"08","Healthy",8,50,55,3,"no","down","Right",1,"FL","FF",4,"down",517,1,"Students08"
17,0.382090866565704,0.47330304980278,-55.3051528930664,144.558166503906,45.7784881591797,167.002,1240.998,216.998,"Pictures_Onset",140.992,"08","Salty",8,50,55,1,"no","up","Left",1,"FF","FL",5,"up",598,1,"Students08"
17,0.368500024080276,0.51324999332428,-61.7762565612793,134.478759765625,42.1095848083496,249.997,1456.998,432.998,"Pictures_Onset",356.992,"08","Salty",8,50,55,1,"no","up","Left",1,"FF","FL",5,"up",598,1,"Students08"
17,0.60895836353302,0.50977087020874,52.8858337402344,135.380630493164,42.4368743896484,248.999,1840.998,816.998,"Pictures_Onset",740.992,"08","Healthy",8,50,55,1,"no","up","Left",1,"FF","FL",5,"up",598,1,"Students08"
17,0.62746661901474,0.472844451665878,61.7475547790527,144.671798706055,45.8184432983398,232,2122.995,1098.995,"Pictures_Onset",1022.989,"08","Healthy",8,50,55,1,"no","up","Left",1,"FF","FL",5,"up",598,1,"Students08"
17,0.649854183197021,0.477645814418793,72.4225006103516,143.461029052734,45.3787498474121,249.997,2388.992,1364.992,"Pictures_Onset",1288.986,"08","Healthy",8,50,55,1,"no","up","Left",1,"FF","FL",5,"up",598,1,"Students08"
17,0.649366736412048,0.485666662454605,72.2033386230469,141.480667114258,44.6570014953613,149.99,2672,1648,"Pictures_Onset",1571.994,"08","Healthy",8,50,55,1,"no","up","Left",1,"FF","FL",5,"up",598,1,"Students08"
17,0.63720840215683,0.508624970912933,66.2958374023438,135.670425415039,42.5424995422363,115.993,2855.002,1831.002,"Pictures_Onset",1754.996,"08","Healthy",8,50,55,1,"no","up","Left",1,"FF","FL",5,"up",598,1,"Students08"
18,0.374099969863892,0.471316635608673,-59.0394973754883,145.036499023438,45.9509963989258,317.005,1246.003,216,"Pictures_Onset",145.997,"08","Healthy",8,50,55,2,"no","up","Left",0,"FL","FF",5,"up",552,1,"Students08"
18,0.605962872505188,0.496129631996155,51.4709281921387,138.813705444336,43.6881484985352,283.008,1696,665.997,"Pictures_Onset",595.994,"08","Salty",8,50,55,2,"no","up","Left",0,"FL","FF",5,"up",552,1,"Students08"
18,0.626925945281982,0.517000019550323,61.4718551635742,133.609268188477,41.7918548583984,133.005,2112,1081.997,"Pictures_Onset",1011.994,"08","Salty",8,50,55,2,"no","up","Left",0,"FL","FF",5,"up",552,1,"Students08"
18,0.38055557012558,0.493351876735687,-55.9738883972168,139.515365600586,43.9418563842773,281.997,2328.998,1298.995,"Pictures_Onset",1228.992,"08","Healthy",8,50,55,2,"no","up","Left",0,"FL","FF",5,"up",552,1,"Students08"
18,0.375126987695694,0.467206329107285,-58.6050796508789,146.100463867188,46.3387298583984,332.992,2645.005,1615.002,"Pictures_Onset",1544.999,"08","Healthy",8,50,55,2,"no","up","Left",0,"FL","FF",5,"up",552,1,"Students08"
19,0.384761959314346,0.483452379703522,-53.9335670471191,142.014282226562,44.8526191711426,215.987,1246.003,216.013,"Pictures_Onset",145.997,"08","Salty",8,50,55,3,"no","down","Right",0,"FF","FL",5,"down",574,1,"Students08"
19,0.360291659832001,0.490374982357025,-65.6587524414062,140.28125,44.2200012207031,116.992,1495.002,465.012,"Pictures_Onset",394.996,"08","Salty",8,50,55,3,"no","down","Right",0,"FF","FL",5,"down",574,1,"Students08"
19,0.633407413959503,0.498666614294052,64.5513000488281,138.216491699219,43.4694366455078,283.993,1695.002,665.012,"Pictures_Onset",594.996,"08","Healthy",8,50,55,3,"no","down","Right",0,"FF","FL",5,"down",574,1,"Students08"
19,0.640736043453217,0.468125015497208,68.0287475585938,145.866516113281,46.253604888916,383.002,2010.995,981.005,"Pictures_Onset",910.989,"08","Healthy",8,50,55,3,"no","down","Right",0,"FF","FL",5,"down",574,1,"Students08"
19,0.615291774272919,0.470847219228745,55.8769493103027,145.190567016602,46.0068092346191,383.002,2426.995,1397.005,"Pictures_Onset",1326.989,"08","Healthy",8,50,55,3,"no","down","Right",0,"FF","FL",5,"down",574,1,"Students08"
20,0.631666660308838,0.517526388168335,63.75,133.407531738281,41.7198257446289,299.008,1234.995,200,"Pictures_Onset",134.989,"08","Salty",8,50,55,4,"no","down","Right",1,"FL","FF",5,"down",530,1,"Students08"
20,0.397312551736832,0.51025003194809,-47.9952049255371,135.273330688477,42.398754119873,249.997,1616.998,582.003,"Pictures_Onset",516.992,"08","Healthy",8,50,55,4,"no","down","Right",1,"FL","FF",5,"down",530,1,"Students08"
20,0.352822244167328,0.505933344364166,-69.2284393310547,136.339553833008,42.7864456176758,232.998,1915.994,880.999,"Pictures_Onset",815.988,"08","Healthy",8,50,55,4,"no","down","Right",1,"FL","FF",5,"down",530,1,"Students08"
20,0.627368450164795,0.526877224445343,61.7119255065918,131.076309204102,40.8701782226562,300.007,2314.995,1280,"Pictures_Onset",1214.989,"08","Salty",8,50,55,4,"no","down","Right",1,"FL","FF",5,"down",530,1,"Students08"
20,0.61395251750946,0.545904815196991,55.3133316040039,126.296829223633,39.1315841674805,332.992,2648,1613.005,"Pictures_Onset",1547.994,"08","Salty",8,50,55,4,"no","down","Right",1,"FL","FF",5,"down",530,1,"Students08"
21,0.406254917383194,0.472509831190109,-43.7768592834473,144.766479492188,45.8531341552734,267.008,1269.99,165.99,"Pictures_Onset",169.984,"08","Salty",8,50,55,2,"no","down","Left",1,"FF","FL",6,"down",543,1,"Students08"
21,0.60939222574234,0.475078344345093,53.1186294555664,144.099792480469,45.610782623291,265.997,1636.992,532.992,"Pictures_Onset",536.986,"08","Healthy",8,50,55,2,"no","down","Left",1,"FF","FL",6,"down",543,1,"Students08"
21,0.644100069999695,0.477400004863739,69.6576690673828,143.542327880859,45.4080047607422,148.992,1952.998,848.998,"Pictures_Onset",852.992,"08","Healthy",8,50,55,2,"no","down","Left",1,"FF","FL",6,"down",543,1,"Students08"
21,0.433697015047073,0.445439428091049,-30.7236347198486,151.584686279297,48.3365211486816,349.991,2168.998,1064.998,"Pictures_Onset",1068.992,"08","Salty",8,50,55,2,"no","down","Left",1,"FF","FL",6,"down",543,1,"Students08"
21,0.4350605905056,0.448333352804184,-30.0012130737305,150.865447998047,48.0745468139648,166.003,2551.987,1447.987,"Pictures_Onset",1451.981,"08","Salty",8,50,55,2,"no","down","Left",1,"FF","FL",6,"down",543,1,"Students08"
22,0.372285693883896,0.457666665315628,-59.9704780578613,148.532623291016,47.2245254516602,216,1245.005,215.002,"Pictures_Onset",144.999,"08","Healthy",8,50,55,3,"no","down","Left",0,"FL","FF",6,"down",538,1,"Students08"
22,0.646288871765137,0.456999957561493,70.7135467529297,148.660003662109,47.2702217102051,232.998,1595.008,565.005,"Pictures_Onset",495.002,"08","Salty",8,50,55,3,"no","down","Left",0,"FL","FF",6,"down",538,1,"Students08"
22,0.647784948348999,0.464537620544434,71.3522567749023,146.789703369141,46.5903244018555,497.997,1862.003,832,"Pictures_Onset",761.997,"08","Salty",8,50,55,3,"no","down","Left",0,"FL","FF",6,"down",538,1,"Students08"
22,0.609313666820526,0.465549021959305,53.0162734985352,146.520980834961,46.4917678833008,267.008,2409.997,1379.994,"Pictures_Onset",1309.991,"08","Salty",8,50,55,3,"no","down","Left",0,"FL","FF",6,"down",538,1,"Students08"
22,0.389037013053894,0.454148143529892,-51.9851837158203,149.408508300781,47.5422210693359,133.004,2759.002,1728.999,"Pictures_Onset",1658.996,"08","Healthy",8,50,55,3,"no","down","Left",0,"FL","FF",6,"down",538,1,"Students08"
23,0.391333371400833,0.488697022199631,-50.8342437744141,140.735153198242,44.3866691589355,167.001,1251.994,232,"Pictures_Onset",151.988,"08","Salty",8,50,55,4,"no","up","Right",0,"FF","FL",6,"up",539,1,"Students08"
23,0.387435913085938,0.504948735237122,-52.7341041564941,136.608459472656,42.8833351135254,200,1452.992,432.998,"Pictures_Onset",352.986,"08","Salty",8,50,55,4,"no","up","Right",0,"FF","FL",6,"up",539,1,"Students08"
23,0.607615351676941,0.491743624210358,52.2656440734863,139.942565917969,44.0979461669922,200,1719.002,699.008,"Pictures_Onset",618.996,"08","Healthy",8,50,55,4,"no","up","Right",0,"FF","FL",6,"up",539,1,"Students08"
23,0.65084844827652,0.472848504781723,72.8875732421875,144.709701538086,45.8351516723633,167.002,1968,948.006,"Pictures_Onset",867.994,"08","Healthy",8,50,55,4,"no","up","Right",0,"FF","FL",6,"up",539,1,"Students08"
23,0.637422263622284,0.492977768182755,66.4942169189453,139.606674194336,43.9755516052246,232.999,2400.998,1381.004,"Pictures_Onset",1300.992,"08","Healthy",8,50,55,4,"no","up","Right",0,"FF","FL",6,"up",539,1,"Students08"
23,0.610238134860992,0.497047632932663,53.439525604248,138.597137451172,43.6085739135742,100.006,2683.994,1664,"Pictures_Onset",1583.988,"08","Healthy",8,50,55,4,"no","up","Right",0,"FF","FL",6,"up",539,1,"Students08"
23,0.60848480463028,0.500636339187622,52.689697265625,137.677871704102,43.2733306884766,167.002,2816.998,1797.004,"Pictures_Onset",1716.992,"08","Healthy",8,50,55,4,"no","up","Right",0,"FF","FL",6,"up",539,1,"Students08"
24,0.374787896871567,0.478969663381577,-58.7618179321289,143.132720947266,45.258487701416,164.992,1247.002,150.004,"Pictures_Onset",146.996,"08","Healthy",8,50,55,1,"no","up","Right",1,"FL","FF",6,"up",603,1,"Students08"
24,0.63179486989975,0.483435899019241,63.8023109436035,142.034622192383,44.859489440918,200.999,1744.998,648,"Pictures_Onset",644.992,"08","Salty",8,50,55,1,"no","up","Right",1,"FL","FF",6,"up",603,1,"Students08"
24,0.381529420614243,0.476647049188614,-55.5188255310059,143.742340087891,45.4811820983887,267.008,2027.994,930.996,"Pictures_Onset",927.988,"08","Healthy",8,50,55,1,"no","up","Right",1,"FL","FF",6,"up",603,1,"Students08"
24,0.382600009441376,0.48746657371521,-55.0089950561523,141.008926391602,44.4859161376953,648,2328,1231.002,"Pictures_Onset",1227.994,"08","Healthy",8,50,55,1,"no","up","Right",1,"FL","FF",6,"up",603,1,"Students08"
25,0.380411744117737,0.465823501348495,-56.0374526977539,146.492553710938,46.4809799194336,264.999,1222.003,200,"Pictures_Onset",121.997,"08","Salty",8,50,55,3,"no","down","Left",1,"FF","FL",7,"down",470,1,"Students08"
25,0.369545429944992,0.465909034013748,-61.2281761169434,146.398620605469,46.4474258422852,349.991,1521.011,499.008,"Pictures_Onset",421.005,"08","Salty",8,50,55,3,"no","down","Left",1,"FF","FL",7,"down",470,1,"Students08"
25,0.615407466888428,0.474648147821426,55.9375877380371,144.258712768555,45.668888092041,283.008,2070.003,1048,"Pictures_Onset",969.997,"08","Healthy",8,50,55,3,"no","down","Left",1,"FF","FL",7,"down",470,1,"Students08"
25,0.391012787818909,0.461871802806854,-51.0246124267578,147.459747314453,46.8341026306152,415.001,2570.01,1548.007,"Pictures_Onset",1470.004,"08","Salty",8,50,55,3,"no","down","Left",1,"FF","FL",7,"down",470,1,"Students08"
26,0.436307728290558,0.484743565320969,-29.4266681671143,141.713592529297,44.7423095703125,200,1039.002,16,"Pictures_Onset",-61.0040000000001,"08","Healthy",8,50,55,4,"no","down","Left",0,"FL","FF",7,"down",531,1,"Students08"
26,0.386846125125885,0.497692316770554,-52.9656410217285,138.409240722656,43.5405082702637,199.002,1288.998,265.996,"Pictures_Onset",188.992,"08","Healthy",8,50,55,4,"no","down","Left",0,"FL","FF",7,"down",531,1,"Students08"
26,0.618348479270935,0.503909051418304,57.3849983215332,136.847885131836,42.9721183776855,349.004,1571.994,548.992,"Pictures_Onset",471.988,"08","Salty",8,50,55,4,"no","down","Left",0,"FL","FF",7,"down",531,1,"Students08"
26,0.640555560588837,0.489361137151718,67.9519500732422,140.512512207031,44.3063850402832,183.001,1953.997,930.995,"Pictures_Onset",853.991,"08","Salty",8,50,55,4,"no","down","Left",0,"FL","FF",7,"down",531,1,"Students08"
26,0.364901959896088,0.51066666841507,-63.4276466369629,135.155288696289,42.3564720153809,266.009,2203.994,1180.992,"Pictures_Onset",1103.988,"08","Healthy",8,50,55,4,"no","down","Left",0,"FL","FF",7,"down",531,1,"Students08"
26,0.383754342794418,0.491526365280151,-54.4726295471191,139.992630004883,44.115795135498,299.993,2503.002,1480,"Pictures_Onset",1402.996,"08","Healthy",8,50,55,4,"no","down","Left",0,"FL","FF",7,"down",531,1,"Students08"
26,0.372666656970978,0.492799937725067,-59.6966667175293,139.669342041016,43.9996681213379,150.003,2835.994,1812.992,"Pictures_Onset",1735.988,"08","Healthy",8,50,55,4,"no","down","Left",0,"FL","FF",7,"down",531,1,"Students08"
27,0.408229202032089,0.47841665148735,-42.7716674804688,143.294372558594,45.3179206848145,249.996,1071.002,49.997,"Pictures_Onset",-29.0040000000001,"08","Salty",8,50,55,1,"no","up","Right",0,"FF","FL",7,"up",533,1,"Students08"
27,0.39127779006958,0.487138956785202,-50.8641662597656,141.098892211914,44.5175018310547,182.003,1354.995,333.99,"Pictures_Onset",254.989,"08","Salty",8,50,55,1,"no","up","Right",0,"FF","FL",7,"up",533,1,"Students08"
27,0.618600010871887,0.498133361339569,57.4423332214355,138.348999023438,43.5179977416992,150.003,1619.994,598.989,"Pictures_Onset",519.988,"08","Healthy",8,50,55,1,"no","up","Right",0,"FF","FL",7,"up",533,1,"Students08"
27,0.628416657447815,0.49958336353302,62.1529159545898,137.902496337891,43.3579177856445,117.005,1936.998,915.993,"Pictures_Onset",836.992,"08","Healthy",8,50,55,1,"no","up","Right",0,"FF","FL",7,"up",533,1,"Students08"
27,0.393913090229034,0.46905791759491,-49.6215934753418,145.664047241211,46.1797027587891,367.001,2119.002,1097.997,"Pictures_Onset",1018.996,"08","Salty",8,50,55,1,"no","up","Right",0,"FF","FL",7,"up",533,1,"Students08"
27,0.388800054788589,0.468166649341583,-52.012336730957,145.858337402344,46.2506637573242,150.003,2519.002,1497.997,"Pictures_Onset",1418.996,"08","Salty",8,50,55,1,"no","up","Right",0,"FF","FL",7,"up",533,1,"Students08"
27,0.370137333869934,0.474137246608734,-61.0180358886719,144.363525390625,45.7066650390625,264.998,2703.002,1681.997,"Pictures_Onset",1602.996,"08","Salty",8,50,55,1,"no","up","Right",0,"FF","FL",7,"up",533,1,"Students08"
28,0.631052613258362,0.479403555393219,63.4019317626953,143.030517578125,45.2219352722168,300.006,1219.994,132.992,"Pictures_Onset",119.988,"08","Salty",8,50,55,2,"no","up","Right",1,"FL","FF",7,"up",467,1,"Students08"
28,0.390111148357391,0.46081480383873,-51.5066680908203,147.679275512695,46.9148101806641,133.005,1585.997,498.995,"Pictures_Onset",485.991,"08","Healthy",8,50,55,2,"no","up","Right",1,"FL","FF",7,"up",467,1,"Students08"
28,0.616021513938904,0.486258059740067,56.2235450744629,141.325805664062,44.6008605957031,499.008,1852.992,765.99,"Pictures_Onset",752.986,"08","Salty",8,50,55,2,"no","up","Right",1,"FL","FF",7,"up",467,1,"Students08"
28,0.619200050830841,0.434761852025986,57.7423782348633,154.279602050781,49.3169555664062,566.004,2384.998,1297.996,"Pictures_Onset",1284.992,"08","Salty",8,50,55,2,"no","up","Right",1,"FL","FF",7,"up",467,1,"Students08"
29,0.39962500333786,0.500833332538605,-46.8945808410645,137.629577636719,43.2574996948242,116.006,1276.992,249.997,"Pictures_Onset",176.986,"08","Salty",8,50,55,4,"no","down","Left",1,"FF","FL",8,"down",494,1,"Students08"
29,0.627370357513428,0.492444396018982,61.6562957763672,139.761856079102,44.0307388305664,133.005,1509.99,482.995,"Pictures_Onset",409.984,"08","Healthy",8,50,55,4,"no","down","Left",1,"FF","FL",8,"down",494,1,"Students08"
29,0.630229890346527,0.501586258411407,63.0464363098145,137.462982177734,43.1962051391602,465.996,1675.994,648.999,"Pictures_Onset",575.988,"08","Healthy",8,50,55,4,"no","down","Left",1,"FF","FL",8,"down",494,1,"Students08"
29,0.383823484182358,0.483196079730988,-54.4505882263184,142.097839355469,44.8823547363281,265.997,2224.998,1198.003,"Pictures_Onset",1124.992,"08","Salty",8,50,55,4,"no","down","Left",1,"FF","FL",8,"down",494,1,"Students08"
29,0.383983284235001,0.491866677999496,-54.3121643066406,139.909332275391,44.086498260498,316.006,2524.992,1497.997,"Pictures_Onset",1424.986,"08","Salty",8,50,55,4,"no","down","Left",1,"FF","FL",8,"down",494,1,"Students08"
30,0.39036500453949,0.493603199720383,-51.3571434020996,139.452682495117,43.9203186035156,333.99,1287.002,266.01,"Pictures_Onset",186.996,"08","Healthy",8,50,55,1,"no","down","Left",0,"FL","FF",8,"down",509,1,"Students08"
30,0.608564078807831,0.485564112663269,52.6702537536621,141.482818603516,44.6587181091309,200,1687.002,666.01,"Pictures_Onset",586.996,"08","Salty",8,50,55,1,"no","down","Left",0,"FL","FF",8,"down",509,1,"Students08"
30,0.64939022064209,0.460292667150497,72.1543960571289,147.860321044922,46.9799194335938,664.999,1936.998,916.006,"Pictures_Onset",836.992,"08","Salty",8,50,55,1,"no","down","Left",0,"FL","FF",8,"down",509,1,"Students08"
30,0.379438638687134,0.464596539735794,-56.4947395324707,146.744033813477,46.5728073120117,300.006,2684.992,1664,"Pictures_Onset",1584.986,"08","Healthy",8,50,55,1,"no","down","Left",0,"FL","FF",8,"down",509,1,"Students08"
31,0.447791635990143,0.463062524795532,-23.973331451416,147.145614624023,46.7197875976562,249.997,1025.997,0,"Pictures_Onset",-74.009,"08","Salty",8,50,55,2,"no","up","Right",0,"FF","FL",8,"up",524,1,"Students08"
31,0.619298338890076,0.470701724290848,57.8668403625488,145.24755859375,46.029468536377,299.993,1341.005,315.008,"Pictures_Onset",240.999,"08","Healthy",8,50,55,2,"no","up","Right",0,"FF","FL",8,"up",524,1,"Students08"
31,0.661166667938232,0.478541672229767,77.7875061035156,143.266052246094,45.3070831298828,251.008,1723.994,697.997,"Pictures_Onset",623.988,"08","Healthy",8,50,55,2,"no","up","Right",0,"FF","FL",8,"up",524,1,"Students08"
31,0.549361050128937,0.470999985933304,24.5383319854736,145.136108398438,45.9880561828613,184,2040,1014.003,"Pictures_Onset",939.994,"08","Healthy",8,50,55,2,"no","up","Right",0,"FF","FL",8,"up",524,1,"Students08"
31,0.635695993900299,0.470284253358841,65.6091079711914,145.341583251953,46.0630416870117,549.005,2273.997,1248,"Pictures_Onset",1173.991,"08","Healthy",8,50,55,2,"no","up","Right",0,"FF","FL",8,"up",524,1,"Students08"
32,0.4173703789711,0.405222207307816,-38.5085182189941,161.735549926758,52.0303726196289,133.005,1104.998,81.9960000000001,"Pictures_Onset",4.99199999999996,"08","Healthy",8,50,55,3,"no","up","Right",1,"FL","FF",8,"up",479,1,"Students08"
32,0.379925966262817,0.454938352108002,-56.3144378662109,149.205062866211,47.4691314697266,434.01,1288,264.998,"Pictures_Onset",187.994,"08","Healthy",8,50,55,3,"no","up","Right",1,"FL","FF",8,"up",479,1,"Students08"
32,0.608270943164825,0.485229134559631,52.553539276123,141.551666259766,44.6827049255371,248.999,1804.006,781.004,"Pictures_Onset",704,"08","Salty",8,50,55,3,"no","up","Right",1,"FL","FF",8,"up",479,1,"Students08"
32,0.645277857780457,0.461444497108459,70.2004928588867,147.548934936523,46.8666687011719,882.009,2103.002,1080,"Pictures_Onset",1002.996,"08","Salty",8,50,55,3,"no","up","Right",1,"FL","FF",8,"up",479,1,"Students08"
33,0.397777765989304,0.480972200632095,-47.7319488525391,142.628601074219,45.0755577087402,184,1232,182.003,"Pictures_Onset",131.994,"08","Salty",8,50,55,1,"no","down","Left",1,"FF","FL",9,"down",539,1,"Students08"
33,0.61773556470871,0.492724120616913,57.0563201904297,139.691848754883,44.007007598877,464.998,1665.997,616,"Pictures_Onset",565.991,"08","Healthy",8,50,55,1,"no","down","Left",1,"FF","FL",9,"down",539,1,"Students08"
33,0.405733287334442,0.477300018072128,-44.007999420166,143.564331054688,45.4160003662109,148.992,2198.003,1148.006,"Pictures_Onset",1097.997,"08","Salty",8,50,55,1,"no","down","Left",1,"FF","FL",9,"down",539,1,"Students08"
33,0.405792891979218,0.485855877399445,-43.9295501708984,141.418823242188,44.6343231201172,600.012,2379.994,1329.997,"Pictures_Onset",1279.988,"08","Salty",8,50,55,1,"no","down","Left",1,"FF","FL",9,"down",539,1,"Students08"
34,0.366777807474136,0.470037043094635,-62.5559272766113,145.383697509766,46.0785179138184,133.004,1259.994,165.991,"Pictures_Onset",159.988,"08","Healthy",8,50,55,2,"no","down","Left",0,"FL","FF",9,"down",516,1,"Students08"
34,0.368900001049042,0.476999938488007,-61.5683364868164,143.657989501953,45.4506683349609,150.003,1425.997,331.994,"Pictures_Onset",325.991,"08","Healthy",8,50,55,2,"no","down","Left",0,"FL","FF",9,"down",516,1,"Students08"
34,0.376629650592804,0.502259254455566,-57.9725875854492,137.287780761719,43.1329612731934,133.005,1609.997,515.994,"Pictures_Onset",509.991,"08","Healthy",8,50,55,2,"no","down","Left",0,"FL","FF",9,"down",516,1,"Students08"
34,0.631871819496155,0.483640998601913,63.8535842895508,141.944351196289,44.8266639709473,200,1825.997,731.994,"Pictures_Onset",725.991,"08","Salty",8,50,55,2,"no","down","Left",0,"FL","FF",9,"down",516,1,"Students08"
34,0.633199989795685,0.493999987840652,64.4413299560547,139.384674072266,43.8951072692871,235.008,2057.997,963.994,"Pictures_Onset",957.991,"08","Salty",8,50,55,2,"no","down","Left",0,"FL","FF",9,"down",516,1,"Students08"
34,0.631166696548462,0.469194442033768,63.4225006103516,145.571670532227,46.1472282409668,182.989,2325.005,1231.002,"Pictures_Onset",1224.999,"08","Salty",8,50,55,2,"no","down","Left",0,"FL","FF",9,"down",516,1,"Students08"
34,0.384683340787888,0.467683374881744,-54.0065078735352,145.943023681641,46.2819938659668,314.995,2592,1497.997,"Pictures_Onset",1491.994,"08","Healthy",8,50,55,2,"no","down","Left",0,"FL","FF",9,"down",516,1,"Students08"
35,0.422564089298248,0.462051272392273,-35.9417915344238,147.424880981445,46.8207740783691,200,1033.997,0,"Pictures_Onset",-66.009,"08","Salty",8,50,55,3,"no","up","Right",0,"FF","FL",9,"up",542,1,"Students08"
35,0.380526304244995,0.47457891702652,-55.98193359375,144.238067626953,45.6614036560059,298.01,1301.99,267.993,"Pictures_Onset",201.984,"08","Salty",8,50,55,3,"no","up","Right",0,"FF","FL",9,"up",542,1,"Students08"
35,0.613119065761566,0.478976190090179,54.9488143920898,143.134292602539,45.2592849731445,216.998,1665.997,632,"Pictures_Onset",565.991,"08","Healthy",8,50,55,3,"no","up","Right",0,"FF","FL",9,"up",542,1,"Students08"
35,0.635666728019714,0.469999998807907,65.6625061035156,145.432098388672,46.0954208374023,117.005,1932.992,898.995,"Pictures_Onset",832.986,"08","Healthy",8,50,55,3,"no","up","Right",0,"FF","FL",9,"up",542,1,"Students08"
35,0.636033415794373,0.467033296823502,65.8330001831055,146.180999755859,46.367000579834,150.003,2081.997,1048,"Pictures_Onset",981.991,"08","Healthy",8,50,55,3,"no","up","Right",0,"FF","FL",9,"up",542,1,"Students08"
35,0.604372084140778,0.495961248874664,50.7182960510254,138.877532958984,43.7099227905273,699.993,2281.997,1248,"Pictures_Onset",1181.991,"08","Healthy",8,50,55,3,"no","up","Right",0,"FF","FL",9,"up",542,1,"Students08"
36,0.620746076107025,0.500491976737976,58.523811340332,137.740325927734,43.2971382141113,333.005,1676.992,648.998,"Pictures_Onset",576.986,"08","Salty",8,50,55,4,"no","up","Right",1,"FL","FF",9,"up",477,1,"Students08"
36,0.37297984957695,0.489383816719055,-59.5915069580078,140.527679443359,44.3095855712891,532.007,2325.99,1297.996,"Pictures_Onset",1225.984,"08","Healthy",8,50,55,4,"no","up","Right",1,"FL","FF",9,"up",477,1,"Students08"
37,0.381600052118301,0.448116689920425,-55.4684982299805,150.916000366211,48.0924987792969,316.006,1017.997,0,"Pictures_Onset",-82.0090000000001,"08","Salty",8,50,55,2,"no","down","Left",1,"FF","FL",10,"down",548,1,"Students08"
37,0.378333330154419,0.469041645526886,-57.0895843505859,145.650421142578,46.1754150390625,116.992,1367.002,332.007,"Pictures_Onset",266.996,"08","Salty",8,50,55,2,"no","down","Left",1,"FF","FL",10,"down",548,1,"Students08"
37,0.619822204113007,0.487466633319855,58.0395584106445,140.990447998047,44.4797782897949,233.997,1550.003,515.008,"Pictures_Onset",449.997,"08","Healthy",8,50,55,2,"no","down","Left",1,"FF","FL",10,"down",548,1,"Students08"
37,0.641366600990295,0.470099985599518,68.3636627197266,145.414337158203,46.088996887207,150.004,2032.998,998.003,"Pictures_Onset",932.992,"08","Healthy",8,50,55,2,"no","down","Left",1,"FF","FL",10,"down",548,1,"Students08"
37,0.363291621208191,0.472541749477386,-64.2325057983398,144.763122558594,45.852294921875,249.997,2248.998,1214.003,"Pictures_Onset",1148.992,"08","Salty",8,50,55,2,"no","down","Left",1,"FF","FL",10,"down",548,1,"Students08"
37,0.374500006437302,0.437458336353302,-58.8656272888184,153.584167480469,49.0652122497559,250.009,2531.994,1496.999,"Pictures_Onset",1431.988,"08","Salty",8,50,55,2,"no","down","Left",1,"FF","FL",10,"down",548,1,"Students08"
38,0.376607835292816,0.477313727140427,-57.8488235473633,143.570190429688,45.4174499511719,266.996,1220.006,200,"Pictures_Onset",120,"08","Healthy",8,50,55,3,"no","down","Left",0,"FL","FF",10,"down",552,1,"Students08"
38,0.616577804088593,0.475155562162399,56.4902191162109,144.091781616211,45.6086654663086,232,1603.008,583.002,"Pictures_Onset",503.002,"08","Salty",8,50,55,3,"no","down","Left",0,"FL","FF",10,"down",552,1,"Students08"
38,0.632866680622101,0.462355554103851,64.3335494995117,147.309997558594,46.7793312072754,233.997,2118.003,1097.997,"Pictures_Onset",1017.997,"08","Salty",8,50,55,3,"no","down","Left",0,"FL","FF",10,"down",552,1,"Students08"
38,0.613515138626099,0.441818207502365,55.0036354064941,152.502410888672,48.6699981689453,166.004,2384.998,1364.992,"Pictures_Onset",1284.992,"08","Salty",8,50,55,3,"no","down","Left",0,"FL","FF",10,"down",552,1,"Students08"
38,0.386607885360718,0.478490144014359,-53.1354904174805,143.23078918457,45.2954902648926,266.995,2634.01,1614.004,"Pictures_Onset",1534.004,"08","Healthy",8,50,55,3,"no","down","Left",0,"FL","FF",10,"down",552,1,"Students08"
39,0.379153877496719,0.502051293849945,-56.7341079711914,137.335647583008,43.1500015258789,200,1236.006,215.001,"Pictures_Onset",136,"08","Salty",8,50,55,4,"no","up","Right",0,"FF","FL",10,"up",593,1,"Students08"
39,0.624987065792084,0.510153830051422,60.5264129638672,135.297424316406,42.4076957702637,416,1519.002,497.997,"Pictures_Onset",418.996,"08","Healthy",8,50,55,4,"no","up","Right",0,"FF","FL",10,"up",593,1,"Students08"
39,0.627179443836212,0.508435904979706,61.507438659668,135.717712402344,42.5610275268555,199.002,1968.998,947.993,"Pictures_Onset",868.992,"08","Healthy",8,50,55,4,"no","up","Right",0,"FF","FL",10,"up",593,1,"Students08"
39,0.384604960680008,0.493432074785233,-54.0360527038574,139.506927490234,43.9391403198242,432,2252.006,1231.001,"Pictures_Onset",1152,"08","Salty",8,50,55,4,"no","up","Right",0,"FF","FL",10,"up",593,1,"Students08"
39,0.382999956607819,0.483137309551239,-54.841178894043,142.068237304688,44.8705863952637,265.997,2717.005,1696,"Pictures_Onset",1616.999,"08","Salty",8,50,55,4,"no","up","Right",0,"FF","FL",10,"up",593,1,"Students08"
40,0.397435933351517,0.482948750257492,-47.9841041564941,142.124359130859,44.8925704956055,199.001,1257.997,233.997,"Pictures_Onset",157.991,"08","Healthy",8,50,55,1,"no","up","Right",1,"FL","FF",10,"up",548,1,"Students08"
40,0.621483385562897,0.484766662120819,58.8325004577637,141.683502197266,44.7308311462402,315.994,1540.006,516.006,"Pictures_Onset",440,"08","Salty",8,50,55,1,"no","up","Right",1,"FL","FF",10,"up",548,1,"Students08"
40,0.396333307027817,0.480666697025299,-48.352668762207,142.684997558594,45.096996307373,149.991,1940.006,916.006,"Pictures_Onset",840,"08","Healthy",8,50,55,1,"no","up","Right",1,"FL","FF",10,"up",548,1,"Students08"
40,0.621819078922272,0.471638113260269,58.9975242614746,144.993240356445,45.9364738464355,566.003,2173.005,1149.005,"Pictures_Onset",1072.999,"08","Salty",8,50,55,1,"no","up","Right",1,"FL","FF",10,"up",548,1,"Students08"
40,0.61341667175293,0.441583335399628,55.031665802002,152.570831298828,48.6941680908203,116.992,2821.005,1797.005,"Pictures_Onset",1720.999,"08","Salty",8,50,55,1,"no","up","Right",1,"FL","FF",10,"up",548,1,"Students08"
41,0.617645859718323,0.474458336830139,57.0414619445801,144.244171142578,45.6635437011719,249.996,1247.002,216,"Pictures_Onset",146.996,"08","Healthy",8,50,55,3,"no","up","Left",1,"FS","FL",11,"up",537,1,"Students08"
41,0.397399961948395,0.443400025367737,-47.9346694946289,152.105117797852,48.5257720947266,233.011,1562.995,531.993,"Pictures_Onset",462.989,"08","Sugary",8,50,55,3,"no","up","Left",1,"FS","FL",11,"up",537,1,"Students08"
41,0.35999995470047,0.447499990463257,-65.8180999755859,151.068099975586,48.1467895507812,449.997,1896,864.998,"Pictures_Onset",795.994,"08","Sugary",8,50,55,3,"no","up","Left",1,"FS","FL",11,"up",537,1,"Students08"
41,0.618214249610901,0.502785742282867,57.2938041687012,137.151672363281,43.0814247131348,216,2412.006,1381.004,"Pictures_Onset",1312,"08","Healthy",8,50,55,3,"no","up","Left",1,"FS","FL",11,"up",537,1,"Students08"
41,0.636259317398071,0.466296315193176,65.9629669189453,146.33073425293,46.4237022399902,132.992,2678.003,1647.001,"Pictures_Onset",1577.997,"08","Healthy",8,50,55,3,"no","up","Left",1,"FS","FL",11,"up",537,1,"Students08"
42,0.427153885364532,0.507820546627045,-33.7823104858398,135.882308959961,42.6207656860352,200,1029.005,0,"Pictures_Onset",-71.001,"08","Healthy",8,50,55,4,"no","up","Left",0,"FL","FS",11,"up",456,1,"Students08"
42,0.383462935686111,0.504296183586121,-54.5899963378906,136.769439697266,42.9422187805176,283.008,1280,250.995,"Pictures_Onset",179.994,"08","Healthy",8,50,55,4,"no","up","Left",0,"FL","FS",11,"up",456,1,"Students08"
42,0.605358958244324,0.502358973026276,51.1356391906738,137.249496459961,43.1169242858887,200,1629.005,600,"Pictures_Onset",528.999,"08","Sugary",8,50,55,4,"no","up","Left",0,"FL","FS",11,"up",456,1,"Students08"
42,0.625874936580658,0.482225000858307,60.9311714172363,142.330413818359,44.9678344726562,648.999,1878.003,848.998,"Pictures_Onset",777.997,"08","Sugary",8,50,55,4,"no","up","Left",0,"FL","FS",11,"up",456,1,"Students08"
42,0.630155563354492,0.472844481468201,62.9488906860352,144.711334228516,45.8342247009277,232.999,2576.998,1547.993,"Pictures_Onset",1476.992,"08","Sugary",8,50,55,4,"no","up","Left",0,"FL","FS",11,"up",456,1,"Students08"
43,0.404511123895645,0.448333352804184,-44.6104469299316,150.846435546875,48.0668907165527,232.999,1030.003,0,"Pictures_Onset",-70.0030000000002,"08","Sugary",8,50,55,1,"no","down","Right",0,"FS","FL",11,"down",571,1,"Students08"
43,0.383518517017365,0.475037038326263,-54.5148162841797,144.161865234375,45.6337013244629,132.006,1296,265.997,"Pictures_Onset",195.994,"08","Sugary",8,50,55,1,"no","down","Right",0,"FS","FL",11,"down",571,1,"Students08"
43,0.645166575908661,0.489071398973465,70.1240463256836,140.581192016602,44.3311882019043,215.001,1613.005,583.002,"Pictures_Onset",512.999,"08","Healthy",8,50,55,1,"no","down","Right",0,"FS","FL",11,"down",571,1,"Students08"
43,0.369246870279312,0.458876550197601,-61.3882751464844,148.211502075195,47.1085166931152,432,1912,881.997,"Pictures_Onset",811.994,"08","Sugary",8,50,55,1,"no","down","Right",0,"FS","FL",11,"down",571,1,"Students08"
43,0.627053439617157,0.490320026874542,61.5582733154297,140.300003051758,44.2270698547363,399.002,2512,1481.997,"Pictures_Onset",1411.994,"08","Healthy",8,50,55,1,"no","down","Right",0,"FS","FL",11,"down",571,1,"Students08"
44,0.401733309030533,0.466499984264374,-45.8983383178711,146.259674072266,46.396671295166,148.992,1248.998,134.003,"Pictures_Onset",148.992,"08","Healthy",8,50,55,2,"no","down","Right",1,"FL","FS",11,"down",468,1,"Students08"
44,0.626555502414703,0.481750011444092,61.2124977111816,142.422775268555,44.9988899230957,184.998,1464,349.005,"Pictures_Onset",363.994,"08","Sugary",8,50,55,2,"no","down","Right",1,"FL","FS",11,"down",468,1,"Students08"
44,0.429245591163635,0.454263120889664,-32.8014030456543,149.407531738281,47.543155670166,298.995,1713.997,599.002,"Pictures_Onset",613.991,"08","Healthy",8,50,55,2,"no","down","Right",1,"FL","FS",11,"down",468,1,"Students08"
44,0.61388885974884,0.465888887643814,55.2069396972656,146.452774047852,46.4672241210938,183.002,2080,965.005,"Pictures_Onset",979.994,"08","Sugary",8,50,55,2,"no","down","Right",1,"FL","FS",11,"down",468,1,"Students08"
44,0.616666674613953,0.467296332120895,56.5577735900879,146.110382080078,46.3429641723633,130.995,2297.997,1183.002,"Pictures_Onset",1197.991,"08","Sugary",8,50,55,2,"no","down","Right",1,"FL","FS",11,"down",468,1,"Students08"
44,0.634449243545532,0.442202895879745,64.978401184082,152.398834228516,48.63232421875,365.99,2463.002,1348.007,"Pictures_Onset",1362.996,"08","Sugary",8,50,55,2,"no","down","Right",1,"FL","FS",11,"down",468,1,"Students08"
45,0.391138941049576,0.518638908863068,-50.9380493164062,133.148345947266,41.6241645812988,183.002,1248,216.998,"Pictures_Onset",147.994,"08","Sugary",8,50,55,4,"no","up","Left",1,"FS","FL",12,"up",530,1,"Students08"
45,0.611577808856964,0.504711091518402,54.102668762207,136.686676025391,42.9135551452637,232.998,1513.997,482.995,"Pictures_Onset",413.991,"08","Healthy",8,50,55,4,"no","up","Left",1,"FS","FL",12,"up",530,1,"Students08"
45,0.614011526107788,0.505126416683197,55.2931022644043,136.563095092773,42.8674697875977,467.008,1779.994,748.992,"Pictures_Onset",679.988,"08","Healthy",8,50,55,4,"no","up","Left",1,"FS","FL",12,"up",530,1,"Students08"
45,0.616444408893585,0.482879638671875,56.4347152709961,142.148803710938,44.9005584716797,581.005,2346.995,1315.993,"Pictures_Onset",1246.989,"08","Healthy",8,50,55,4,"no","up","Left",1,"FS","FL",12,"up",530,1,"Students08"
46,0.428124994039536,0.496416658163071,-33.3300018310547,138.728759765625,43.65625,116.006,1173.005,84.0070000000001,"Pictures_Onset",72.999,"08","Healthy",8,50,55,1,"no","up","Left",0,"FL","FS",12,"up",585,1,"Students08"
46,0.366119056940079,0.489190429449081,-62.8242835998535,140.527145385742,44.310718536377,217.997,1355.008,266.01,"Pictures_Onset",255.002,"08","Healthy",8,50,55,1,"no","up","Left",0,"FL","FS",12,"up",585,1,"Students08"
46,0.597119152545929,0.474690437316895,47.2495193481445,144.162139892578,45.6342849731445,216.998,1655.002,566.004,"Pictures_Onset",554.996,"08","Sugary",8,50,55,1,"no","up","Left",0,"FL","FS",12,"up",585,1,"Students08"
46,0.617572844028473,0.458250015974045,56.9629249572754,148.380004882812,47.1688499450684,517.005,1904,815.002,"Pictures_Onset",803.994,"08","Sugary",8,50,55,1,"no","up","Left",0,"FL","FS",12,"up",585,1,"Students08"
46,0.366372585296631,0.497117668390274,-62.7252922058105,138.543533325195,43.589412689209,267.008,2503.002,1414.004,"Pictures_Onset",1402.996,"08","Healthy",8,50,55,1,"no","up","Left",0,"FL","FS",12,"up",585,1,"Students08"
46,0.411818146705627,0.514424204826355,-41.1233329772949,134.192733764648,42.0054550170898,166.004,2820.006,1731.008,"Pictures_Onset",1720,"08","Healthy",8,50,55,1,"no","up","Left",0,"FL","FS",12,"up",585,1,"Students08"
47,0.397424250841141,0.471939384937286,-47.9384803771973,144.905456542969,45.9045448303223,168,1201.997,182.003,"Pictures_Onset",101.991,"08","Sugary",8,50,55,2,"no","down","Right",0,"FS","FL",12,"down",508,1,"Students08"
47,0.367366671562195,0.464800029993057,-62.3646621704102,146.712005615234,46.5596656799316,150.003,1418.995,399.001,"Pictures_Onset",318.989,"08","Sugary",8,50,55,2,"no","down","Right",0,"FS","FL",12,"down",508,1,"Students08"
47,0.620291650295258,0.481916666030884,58.281665802002,142.410827636719,44.9970817565918,116.007,1634.995,615.001,"Pictures_Onset",534.989,"08","Healthy",8,50,55,2,"no","down","Right",0,"FS","FL",12,"down",508,1,"Students08"
47,0.620213806629181,0.490157246589661,58.253833770752,140.319549560547,44.2352180480957,864,1785.997,766.003,"Pictures_Onset",685.991,"08","Healthy",8,50,55,2,"no","down","Right",0,"FS","FL",12,"down",508,1,"Students08"
48,0.3783999979496,0.464933335781097,-57.0746650695801,146.664337158203,46.5449981689453,150.003,1226.995,200,"Pictures_Onset",126.989,"08","Healthy",8,50,55,3,"no","down","Right",1,"FL","FS",12,"down",543,1,"Students08"
48,0.614250004291534,0.481055587530136,55.4666709899902,142.654724121094,45.0844421386719,183.001,1459.994,432.999,"Pictures_Onset",359.988,"08","Sugary",8,50,55,3,"no","down","Right",1,"FL","FS",12,"down",543,1,"Students08"
48,0.62310254573822,0.454025626182556,59.6228218078613,149.432556152344,47.5520477294922,200,1675.994,648.999,"Pictures_Onset",575.988,"08","Sugary",8,50,55,3,"no","down","Right",1,"FL","FS",12,"down",543,1,"Students08"
48,0.387104153633118,0.48004162311554,-52.915210723877,142.891677856445,45.171875,248.998,1943.002,916.007,"Pictures_Onset",842.996,"08","Healthy",8,50,55,3,"no","down","Right",1,"FL","FS",12,"down",543,1,"Students08"
48,0.354240745306015,0.467444360256195,-68.5517654418945,146.033340454102,46.3140716552734,582.003,2241.997,1215.002,"Pictures_Onset",1141.991,"08","Healthy",8,50,55,3,"no","down","Right",1,"FL","FS",12,"down",543,1,"Students08"
49,0.382222235202789,0.478592604398727,-55.1866645812988,143.238510131836,45.2962951660156,132.992,1262.003,234.009,"Pictures_Onset",161.997,"08","Sugary",8,50,55,1,"no","up","Left",1,"FS","FL",13,"up",476,1,"Students08"
49,0.620625019073486,0.496875017881393,58.4704170227051,138.636657714844,43.6237449645996,116.992,1462.003,434.009,"Pictures_Onset",361.997,"08","Healthy",8,50,55,1,"no","up","Left",1,"FS","FL",13,"up",476,1,"Students08"
49,0.622761905193329,0.50169050693512,59.4807167053223,137.410949707031,43.1776161193848,215.988,1612.006,584.012,"Pictures_Onset",512,"08","Healthy",8,50,55,1,"no","up","Left",1,"FS","FL",13,"up",476,1,"Students08"
49,0.630200028419495,0.500399947166443,62.9915046691895,137.738845825195,43.2954940795898,314.995,2095.002,1067.008,"Pictures_Onset",994.996,"08","Healthy",8,50,55,1,"no","up","Left",1,"FS","FL",13,"up",476,1,"Students08"
49,0.599806547164917,0.408774226903915,48.5406455993652,160.835052490234,51.7016143798828,498.996,2476.006,1448.012,"Pictures_Onset",1376,"08","Healthy",8,50,55,1,"no","up","Left",1,"FS","FL",13,"up",476,1,"Students08"
50,0.402549028396606,0.479392170906067,-45.4854965209961,143.011749267578,45.2141151428223,267.008,1240,215.002,"Pictures_Onset",139.994,"08","Healthy",8,50,55,2,"no","up","Left",0,"FL","FS",13,"up",450,1,"Students08"
50,0.624645829200745,0.470270812511444,60.394588470459,145.353942871094,46.0677146911621,249.997,1574.003,549.005,"Pictures_Onset",473.997,"08","Sugary",8,50,55,2,"no","up","Left",0,"FL","FS",13,"up",450,1,"Students08"
50,0.395315319299698,0.486486524343491,-48.9629745483398,141.251083374023,44.5734252929688,598.003,1889.997,864.999,"Pictures_Onset",789.991,"08","Healthy",8,50,55,2,"no","up","Left",0,"FL","FS",13,"up",450,1,"Students08"
50,0.366543918848038,0.480350881814957,-62.6682434082031,142.771224975586,45.1266670227051,298.995,2655.002,1630.004,"Pictures_Onset",1554.996,"08","Healthy",8,50,55,2,"no","up","Left",0,"FL","FS",13,"up",450,1,"Students08"
51,0.380187511444092,0.450270861387253,-56.1504173278809,150.401245117188,47.9037475585938,251.008,1255.002,115.994,"Pictures_Onset",154.996,"08","Sugary",8,50,55,3,"no","down","Right",0,"FS","FL",13,"down",511,1,"Students08"
51,0.618777811527252,0.475259244441986,57.5022239685059,144.074447631836,45.6007423400879,133.99,1571.008,432,"Pictures_Onset",471.002,"08","Healthy",8,50,55,3,"no","down","Right",0,"FS","FL",13,"down",511,1,"Students08"
51,0.620000004768372,0.479074060916901,58.1507415771484,143.096298217773,45.2474060058594,134.004,1736.998,597.99,"Pictures_Onset",636.992,"08","Healthy",8,50,55,3,"no","down","Right",0,"FS","FL",13,"down",511,1,"Students08"
51,0.651246964931488,0.464864164590836,73.021598815918,146.691604614258,46.5546951293945,432.999,1921.011,782.003,"Pictures_Onset",821.005,"08","Healthy",8,50,55,3,"no","down","Right",0,"FS","FL",13,"down",511,1,"Students08"
51,0.410199970006943,0.429199993610382,-41.8623352050781,155.685653686523,49.8279991149902,149.005,2437.005,1297.997,"Pictures_Onset",1336.999,"08","Sugary",8,50,55,3,"no","down","Right",0,"FS","FL",13,"down",511,1,"Students08"
51,0.634740710258484,0.458944439888,65.1396331787109,148.185897827148,47.0994415283203,283.993,2669.005,1529.997,"Pictures_Onset",1568.999,"08","Healthy",8,50,55,3,"no","down","Right",0,"FS","FL",13,"down",511,1,"Students08"
52,0.414916664361954,0.464722156524658,-39.6199989318848,146.728332519531,46.5669403076172,180.992,1084.006,0,"Pictures_Onset",-16,"08","Healthy",8,50,55,4,"no","down","Right",1,"FL","FS",13,"down",490,1,"Students08"
52,0.391538470983505,0.494487226009369,-50.660514831543,139.238204956055,43.8433380126953,200,1298.995,214.989,"Pictures_Onset",198.989,"08","Healthy",8,50,55,4,"no","down","Right",1,"FL","FS",13,"down",490,1,"Students08"
52,0.626859664916992,0.500701725482941,61.4006996154785,137.691589355469,43.2778968811035,298.995,1583.002,498.996,"Pictures_Onset",482.996,"08","Sugary",8,50,55,4,"no","down","Right",1,"FL","FS",13,"down",490,1,"Students08"
52,0.391166687011719,0.512166678905487,-50.995002746582,134.754150390625,42.2091674804688,116.992,1981.005,896.999,"Pictures_Onset",880.999,"08","Healthy",8,50,55,4,"no","down","Right",1,"FL","FS",13,"down",490,1,"Students08"
52,0.391312479972839,0.514666676521301,-50.8729133605957,134.176467895508,41.9985427856445,249.011,2131.994,1047.988,"Pictures_Onset",1031.988,"08","Healthy",8,50,55,4,"no","down","Right",1,"FL","FS",13,"down",490,1,"Students08"
52,0.368062496185303,0.501229107379913,-61.9464569091797,137.532287597656,43.22021484375,248.999,2414.003,1329.997,"Pictures_Onset",1313.997,"08","Healthy",8,50,55,4,"no","down","Right",1,"FL","FS",13,"down",490,1,"Students08"
52,0.397629618644714,0.468851834535599,-47.8011093139648,145.691848754883,46.1903686523438,134.004,2712.998,1628.992,"Pictures_Onset",1612.992,"08","Healthy",8,50,55,4,"no","down","Right",1,"FL","FS",13,"down",490,1,"Students08"
53,0.62925922870636,0.478740751743317,62.5866622924805,143.188522338867,45.2807388305664,133.005,1249.997,216.999,"Pictures_Onset",149.991,"08","Healthy",8,50,55,2,"no","up","Left",1,"FS","FL",14,"up",756,1,"Students08"
53,0.627878725528717,0.489575773477554,61.9584846496582,140.494857788086,44.3003044128418,166.003,1416,383.002,"Pictures_Onset",315.994,"08","Healthy",8,50,55,2,"no","up","Left",1,"FS","FL",14,"up",756,1,"Students08"
53,0.397244483232498,0.476022183895111,-48.0215530395508,143.876449584961,45.529109954834,232,1665.997,632.999,"Pictures_Onset",565.991,"08","Sugary",8,50,55,2,"no","up","Left",1,"FS","FL",14,"up",756,1,"Students08"
53,0.367692321538925,0.4965640604496,-62.0346145629883,138.706161499023,43.6482086181641,199.988,1948.006,915.008,"Pictures_Onset",848,"08","Sugary",8,50,55,2,"no","up","Left",1,"FS","FL",14,"up",756,1,"Students08"
53,0.383705109357834,0.457794845104218,-54.5326919555664,148.485656738281,47.2084617614746,416,2215.002,1182.004,"Pictures_Onset",1114.996,"08","Sugary",8,50,55,2,"no","up","Left",1,"FS","FL",14,"up",756,1,"Students08"
53,0.623666703701019,0.474431365728378,59.8474464416504,144.255279541016,45.6678466796875,265.997,2713.997,1680.999,"Pictures_Onset",1613.991,"08","Healthy",8,50,55,2,"no","up","Left",1,"FS","FL",14,"up",756,1,"Students08"
54,0.376549005508423,0.472254872322083,-57.8917655944824,144.82275390625,45.8741149902344,266.009,1267.994,232.999,"Pictures_Onset",167.988,"08","Healthy",8,50,55,3,"no","up","Left",0,"FL","FS",14,"up",469,1,"Students08"
54,0.6307333111763,0.478366672992706,63.2186660766602,143.289001464844,45.3159980773926,318.003,1600,565.005,"Pictures_Onset",499.994,"08","Sugary",8,50,55,3,"no","up","Left",0,"FL","FS",14,"up",469,1,"Students08"
54,0.633413374423981,0.486173331737518,64.5816040039062,141.326263427734,44.601863861084,399.002,1950.003,915.008,"Pictures_Onset",849.997,"08","Sugary",8,50,55,3,"no","up","Left",0,"FL","FS",14,"up",469,1,"Students08"
54,0.389166653156281,0.466899961233139,-51.8846664428711,146.186340332031,46.370002746582,150.004,2432.998,1398.003,"Pictures_Onset",1332.992,"08","Healthy",8,50,55,3,"no","up","Left",0,"FL","FS",14,"up",469,1,"Students08"
54,0.35946974158287,0.468878775835037,-65.9947052001953,145.683609008789,46.1877288818359,348.992,2632,1597.005,"Pictures_Onset",1531.994,"08","Healthy",8,50,55,3,"no","up","Left",0,"FL","FS",14,"up",469,1,"Students08"
55,0.44936665892601,0.469433307647705,-23.1983337402344,145.550674438477,46.1383323669434,149.004,1023.002,0,"Pictures_Onset",-77.0040000000001,"08","Sugary",8,50,55,4,"no","down","Right",0,"FS","FL",14,"down",507,1,"Students08"
55,0.384791672229767,0.488583326339722,-53.903751373291,140.736251831055,44.3868789672852,248.998,1223.002,200,"Pictures_Onset",122.996,"08","Sugary",8,50,55,4,"no","down","Right",0,"FS","FL",14,"down",507,1,"Students08"
55,0.616254985332489,0.492490142583847,56.3194160461426,139.724700927734,44.0188255310059,266.01,1538.995,515.993,"Pictures_Onset",438.989,"08","Healthy",8,50,55,4,"no","down","Right",0,"FS","FL",14,"down",507,1,"Students08"
55,0.629787862300873,0.476727217435837,62.8266716003418,143.690307617188,45.4621238708496,166.003,1839.002,816,"Pictures_Onset",738.996,"08","Healthy",8,50,55,4,"no","down","Right",0,"FS","FL",14,"down",507,1,"Students08"
55,0.410529941320419,0.469564110040665,-41.6891479492188,145.513671875,46.1256370544434,632.998,2071.002,1048,"Pictures_Onset",970.996,"08","Sugary",8,50,55,4,"no","down","Right",0,"FS","FL",14,"down",507,1,"Students08"
55,0.410083293914795,0.476916640996933,-41.9212532043457,143.638763427734,45.4433326721191,116.007,2736.998,1713.996,"Pictures_Onset",1636.992,"08","Sugary",8,50,55,4,"no","down","Right",0,"FS","FL",14,"down",507,1,"Students08"
56,0.380923092365265,0.484384596347809,-55.8035888671875,141.765380859375,44.7620506286621,200,1233.997,200,"Pictures_Onset",133.991,"08","Healthy",8,50,55,1,"no","down","Right",1,"FL","FS",14,"down",515,1,"Students08"
56,0.601458311080933,0.490208357572556,49.3499946594238,140.332504272461,44.2379112243652,116.007,1498.995,464.998,"Pictures_Onset",398.989,"08","Sugary",8,50,55,1,"no","down","Right",1,"FL","FS",14,"down",515,1,"Students08"
56,0.606205105781555,0.490487158298492,51.5623092651367,140.250503540039,44.2092323303223,200,1648.998,615.001,"Pictures_Onset",548.992,"08","Sugary",8,50,55,1,"no","down","Right",1,"FL","FS",14,"down",515,1,"Students08"
56,0.637282073497772,0.486871868371964,66.3897399902344,141.154876708984,44.5397415161133,200,1881.997,848,"Pictures_Onset",781.991,"08","Sugary",8,50,55,1,"no","down","Right",1,"FL","FS",14,"down",515,1,"Students08"
56,0.363350808620453,0.48657900094986,-64.1922836303711,141.214736938477,44.5605278015137,298.995,2248,1214.003,"Pictures_Onset",1147.994,"08","Healthy",8,50,55,1,"no","down","Right",1,"FL","FS",14,"down",515,1,"Students08"
56,0.365606039762497,0.465121179819107,-63.0915069580078,146.629379272461,46.533031463623,164.992,2582.003,1548.006,"Pictures_Onset",1481.997,"08","Healthy",8,50,55,1,"no","down","Right",1,"FL","FS",14,"down",515,1,"Students08"
57,0.381888866424561,0.472055554389954,-55.3416709899902,144.884719848633,45.8966674804688,182.003,1265.997,117.005,"Pictures_Onset",165.991,"08","Sugary",8,50,55,3,"no","up","Left",1,"FS","FL",15,"up",656,1,"Students08"
57,0.630035758018494,0.476630926132202,62.9171447753906,143.725860595703,45.4747619628906,450.01,1564.992,416,"Pictures_Onset",464.986,"08","Healthy",8,50,55,3,"no","up","Left",1,"FS","FL",15,"up",656,1,"Students08"
57,0.421712100505829,0.41933336853981,-36.3481788635254,158.141052246094,50.7218284606934,349.005,2629.99,1480.998,"Pictures_Onset",1529.984,"08","Sugary",8,50,55,3,"no","up","Left",1,"FS","FL",15,"up",656,1,"Students08"
58,0.371128231287003,0.49810254573822,-60.5387191772461,138.341278076172,43.5143585205078,200.013,1316.992,282.995,"Pictures_Onset",216.986,"08","Healthy",8,50,55,4,"no","up","Left",0,"FL","FS",15,"up",505,1,"Students08"
58,0.615411698818207,0.504196107387543,55.9715690612793,136.791076660156,42.9507789611816,550.003,1600,566.003,"Pictures_Onset",499.994,"08","Sugary",8,50,55,4,"no","up","Left",0,"FL","FS",15,"up",505,1,"Students08"
58,0.651642858982086,0.49399995803833,73.1792831420898,139.392852783203,43.898567199707,215.002,2200,1166.003,"Pictures_Onset",1099.994,"08","Sugary",8,50,55,4,"no","up","Left",0,"FL","FS",15,"up",505,1,"Students08"
58,0.6250119805336,0.484404712915421,60.530704498291,141.754867553711,44.7578620910645,448.999,2448.998,1415.001,"Pictures_Onset",1348.992,"08","Sugary",8,50,55,4,"no","up","Left",0,"FL","FS",15,"up",505,1,"Students08"
59,0.388000041246414,0.441444456577301,-52.4475517272949,152.585113525391,48.700439453125,232,1031.002,0,"Pictures_Onset",-69.0040000000001,"08","Sugary",8,50,55,1,"no","down","Right",0,"FS","FL",15,"down",502,1,"Students08"
59,0.381375014781952,0.482625007629395,-55.6320838928223,142.244171142578,44.9358367919922,117.005,1296,264.998,"Pictures_Onset",195.994,"08","Sugary",8,50,55,1,"no","down","Right",0,"FS","FL",15,"down",502,1,"Students08"
59,0.629309475421906,0.489749938249588,62.600715637207,140.432861328125,44.2764282226562,449.997,1480,448.998,"Pictures_Onset",379.994,"08","Healthy",8,50,55,1,"no","down","Right",0,"FS","FL",15,"down",502,1,"Students08"
59,0.629769325256348,0.500897407531738,62.7415351867676,137.627944946289,43.255126953125,200,1961.997,930.995,"Pictures_Onset",861.991,"08","Healthy",8,50,55,1,"no","down","Right",0,"FS","FL",15,"down",502,1,"Students08"
59,0.414174616336823,0.458809524774551,-39.948413848877,148.215408325195,47.1084060668945,334.003,2243.994,1212.992,"Pictures_Onset",1143.988,"08","Sugary",8,50,55,1,"no","down","Right",0,"FS","FL",15,"down",502,1,"Students08"
59,0.610461533069611,0.464794844388962,53.5902633666992,146.724105834961,46.5648765563965,200,2643.994,1612.992,"Pictures_Onset",1543.988,"08","Healthy",8,50,55,1,"no","down","Right",0,"FS","FL",15,"down",502,1,"Students08"
60,0.613787889480591,0.482909023761749,55.1245498657227,142.134552001953,44.8957557678223,167.001,1335.002,298.996,"Pictures_Onset",234.996,"08","Sugary",8,50,55,2,"no","down","Right",1,"FL","FS",15,"down",444,1,"Students08"
60,0.648843109607697,0.470529317855835,71.8348922729492,145.263732910156,46.0339202880859,264.998,1552,515.994,"Pictures_Onset",451.994,"08","Sugary",8,50,55,2,"no","down","Right",1,"FL","FS",15,"down",444,1,"Students08"
60,0.616884529590607,0.477141082286835,56.7078170776367,143.612411499023,45.4347457885742,416,1850.995,814.989,"Pictures_Onset",750.989,"08","Sugary",8,50,55,2,"no","down","Right",1,"FL","FS",15,"down",444,1,"Students08"
60,0.632901966571808,0.464862763881683,64.3117599487305,146.733749389648,46.5697975158691,265.997,2350.003,1313.997,"Pictures_Onset",1249.997,"08","Sugary",8,50,55,2,"no","down","Right",1,"FL","FS",15,"down",444,1,"Students08"
60,0.434962928295135,0.458296298980713,-30.0703735351562,148.338516235352,47.1537055969238,131.994,2700.006,1664,"Pictures_Onset",1600,"08","Healthy",8,50,55,2,"no","down","Right",1,"FL","FS",15,"down",444,1,"Students08"
61,0.389288902282715,0.479333370923996,-51.8359985351562,143.050888061523,45.228889465332,232.998,1021.005,0,"Pictures_Onset",-79.0010000000001,"08","Sugary",8,50,55,4,"no","down","Left",1,"FS","FL",16,"down",570,1,"Students08"
61,0.390133321285248,0.503600001335144,-51.5116691589355,136.881683349609,42.9836654663086,149.005,1288,266.995,"Pictures_Onset",187.994,"08","Sugary",8,50,55,4,"no","down","Left",1,"FS","FL",16,"down",570,1,"Students08"
61,0.634982407093048,0.51314914226532,65.2257080078125,134.512985229492,42.121753692627,299.008,1520,498.995,"Pictures_Onset",419.994,"08","Healthy",8,50,55,4,"no","down","Left",1,"FS","FL",16,"down",570,1,"Students08"
61,0.632347345352173,0.48993980884552,64.0322265625,140.361389160156,44.250602722168,583.001,1853.005,832,"Pictures_Onset",752.999,"08","Healthy",8,50,55,4,"no","down","Left",1,"FS","FL",16,"down",570,1,"Students08"
61,0.400358974933624,0.492820560932159,-46.5789794921875,139.651031494141,43.9915390014648,199.002,2502.003,1480.998,"Pictures_Onset",1401.997,"08","Sugary",8,50,55,4,"no","down","Left",1,"FS","FL",16,"down",570,1,"Students08"
61,0.360733330249786,0.490866661071777,-65.4162216186523,140.149108886719,44.1737747192383,232.998,2751.002,1729.997,"Pictures_Onset",1650.996,"08","Sugary",8,50,55,4,"no","down","Left",1,"FS","FL",16,"down",570,1,"Students08"
62,0.622866749763489,0.464200049638748,59.489559173584,146.879547119141,46.6231079101562,232.998,1309.005,233.011,"Pictures_Onset",208.999,"08","Sugary",8,50,55,1,"no","down","Left",0,"FL","FS",16,"down",491,1,"Students08"
62,0.392818182706833,0.480151534080505,-50.1351547241211,142.805770874023,45.1393966674805,167.002,1624.998,549.004,"Pictures_Onset",524.992,"08","Healthy",8,50,55,1,"no","down","Left",0,"FL","FS",16,"down",491,1,"Students08"
62,0.349823504686356,0.483745127916336,-70.6629409790039,141.911193847656,44.8147087097168,266.009,1907.994,832,"Pictures_Onset",807.988,"08","Healthy",8,50,55,1,"no","down","Left",0,"FL","FS",16,"down",491,1,"Students08"
62,0.623254001140594,0.490666747093201,59.6984176635742,140.184616088867,44.1868286132812,332.007,2240.998,1165.004,"Pictures_Onset",1140.992,"08","Sugary",8,50,55,1,"no","down","Left",0,"FL","FS",16,"down",491,1,"Students08"
62,0.654888868331909,0.486537039279938,74.8159255981445,141.246490478516,44.5725898742676,283.993,2623.002,1547.008,"Pictures_Onset",1522.996,"08","Sugary",8,50,55,1,"no","down","Left",0,"FL","FS",16,"down",491,1,"Students08"
63,0.395555585622787,0.480444431304932,-48.8707427978516,142.755920410156,45.1207389831543,132.992,1255.002,232.999,"Pictures_Onset",154.996,"08","Sugary",8,50,55,2,"no","up","Right",0,"FS","FL",16,"up",485,1,"Students08"
63,0.391407400369644,0.484111100435257,-50.8111114501953,141.813339233398,44.7799987792969,134.003,1420.992,398.989,"Pictures_Onset",320.986,"08","Sugary",8,50,55,2,"no","up","Right",0,"FS","FL",16,"up",485,1,"Students08"
63,0.571999967098236,0.473037034273148,35.2574043273926,144.636291503906,45.8051834106445,133.005,1620.992,598.989,"Pictures_Onset",520.986,"08","Healthy",8,50,55,2,"no","up","Right",0,"FS","FL",16,"up",485,1,"Students08"
63,0.631041646003723,0.472000032663345,63.3429183959961,144.893112182617,45.9006309509277,248.998,1803.994,781.991,"Pictures_Onset",703.988,"08","Healthy",8,50,55,2,"no","up","Right",0,"FS","FL",16,"up",485,1,"Students08"
63,0.655361175537109,0.469694465398788,74.9936141967773,145.433059692383,46.0947227478027,184.013,2085.99,1063.987,"Pictures_Onset",985.984,"08","Healthy",8,50,55,2,"no","up","Right",0,"FS","FL",16,"up",485,1,"Students08"
63,0.611939370632172,0.452848523855209,54.2963600158691,149.759704589844,47.6709098815918,166.988,2319.002,1296.999,"Pictures_Onset",1218.996,"08","Healthy",8,50,55,2,"no","up","Right",0,"FS","FL",16,"up",485,1,"Students08"
63,0.409764647483826,0.448549032211304,-42.0652923583984,150.783721923828,48.0439186096191,264.998,2553.997,1531.994,"Pictures_Onset",1453.991,"08","Sugary",8,50,55,2,"no","up","Right",0,"FS","FL",16,"up",485,1,"Students08"
63,0.370291650295258,0.44858330488205,-60.9783325195312,150.80500793457,48.0512504577637,116.006,2868.992,1846.989,"Pictures_Onset",1768.986,"08","Sugary",8,50,55,2,"no","up","Right",0,"FS","FL",16,"up",485,1,"Students08"
64,0.399142891168594,0.46109527349472,-47.1180953979492,147.634292602539,46.8976173400879,100.006,1244.992,215.002,"Pictures_Onset",144.986,"08","Healthy",8,50,55,3,"no","up","Right",1,"FL","FS",16,"up",438,1,"Students08"
64,0.634199976921082,0.49466672539711,64.9581756591797,139.181991577148,43.8219985961914,316.006,1428.992,399.002,"Pictures_Onset",328.986,"08","Sugary",8,50,55,3,"no","up","Right",1,"FL","FS",16,"up",438,1,"Students08"
64,0.636777758598328,0.482703685760498,66.1629638671875,142.203720092773,44.9203643798828,134.003,1777.997,748.007,"Pictures_Onset",677.991,"08","Sugary",8,50,55,3,"no","up","Right",1,"FL","FS",16,"up",438,1,"Students08"
64,0.638607859611511,0.460568636655807,66.9837188720703,147.789993286133,46.9535293579102,265.997,1944,914.01,"Pictures_Onset",843.994,"08","Sugary",8,50,55,3,"no","up","Right",1,"FL","FS",16,"up",438,1,"Students08"
64,0.600809454917908,0.39835712313652,48.9476203918457,163.462615966797,52.6580924987793,217.996,2259.994,1230.004,"Pictures_Onset",1159.988,"08","Sugary",8,50,55,3,"no","up","Right",1,"FL","FS",16,"up",438,1,"Students08"
64,0.444575756788254,0.422515124082565,-25.4609088897705,157.373626708984,50.4436378479004,166.988,2543.002,1513.012,"Pictures_Onset",1442.996,"08","Healthy",8,50,55,3,"no","up","Right",1,"FL","FS",16,"up",438,1,"Students08"
64,0.62302565574646,0.429384648799896,59.5833320617676,155.608459472656,49.798713684082,200,2776,1746.01,"Pictures_Onset",1675.994,"08","Sugary",8,50,55,3,"no","up","Right",1,"FL","FS",16,"up",438,1,"Students08"
65,0.611969709396362,0.484878808259964,54.3909072875977,141.638793945312,44.7157592773438,164.992,1264,150.003,"Pictures_Onset",163.994,"08","Healthy",8,50,55,1,"no","down","Left",1,"FS","FL",17,"down",500,1,"Students08"
65,0.391416639089584,0.456375032663345,-50.7964630126953,148.862487792969,47.3447875976562,249.997,1512.998,399.001,"Pictures_Onset",412.992,"08","Sugary",8,50,55,1,"no","down","Left",1,"FS","FL",17,"down",500,1,"Students08"
65,0.370049953460693,0.471666663885117,-61.0456657409668,144.981170654297,45.9316673278809,317.004,1795.994,681.997,"Pictures_Onset",695.988,"08","Sugary",8,50,55,1,"no","down","Left",1,"FS","FL",17,"down",500,1,"Students08"
65,0.380550801753998,0.458347827196121,-55.9712982177734,148.349838256836,47.1578254699707,366.003,2145.997,1032,"Pictures_Onset",1045.991,"08","Sugary",8,50,55,1,"no","down","Left",1,"FS","FL",17,"down",500,1,"Students08"
65,0.379309564828873,0.432190477848053,-56.5869140625,154.919067382812,49.5484504699707,448.999,2544.998,1431.001,"Pictures_Onset",1444.992,"08","Sugary",8,50,55,1,"no","down","Left",1,"FS","FL",17,"down",500,1,"Students08"
66,0.392729192972183,0.481624931097031,-50.154167175293,142.456665039062,45.0122909545898,249.996,1211.994,131.994,"Pictures_Onset",111.988,"08","Healthy",8,50,55,2,"no","down","Left",0,"FL","FS",17,"down",852,1,"Students08"
66,0.389090895652771,0.478727251291275,-51.9463539123535,143.204849243164,45.2851524353027,166.003,1496,416,"Pictures_Onset",395.994,"08","Healthy",8,50,55,2,"no","down","Left",0,"FL","FS",17,"down",852,1,"Students08"
66,0.648772001266479,0.467877149581909,71.8614044189453,145.961578369141,46.2889518737793,299.993,1895.002,815.002,"Pictures_Onset",794.996,"08","Sugary",8,50,55,2,"no","down","Left",0,"FL","FS",17,"down",852,1,"Students08"
66,0.624703705310822,0.460185199975967,60.4048118591309,147.870010375977,46.9811134338379,132.006,2227.994,1147.994,"Pictures_Onset",1127.988,"08","Sugary",8,50,55,2,"no","down","Left",0,"FL","FS",17,"down",852,1,"Students08"
66,0.37830662727356,0.475506693124771,-57.0423965454102,144.018539428711,45.5809364318848,398.003,2444.992,1364.992,"Pictures_Onset",1344.986,"08","Healthy",8,50,55,2,"no","down","Left",0,"FL","FS",17,"down",852,1,"Students08"
66,0.373523861169815,0.505095243453979,-59.3133316040039,136.575241088867,42.8728561401367,100.006,2875.994,1795.994,"Pictures_Onset",1775.988,"08","Healthy",8,50,55,2,"no","down","Left",0,"FL","FS",17,"down",852,1,"Students08"
67,0.366215705871582,0.462509751319885,-62.7821464538574,147.310394287109,46.779411315918,264.998,1268.992,234.995,"Pictures_Onset",168.986,"08","Sugary",8,50,55,3,"no","up","Right",0,"FS","FL",17,"up",597,1,"Students08"
67,0.382818132638931,0.475212126970291,-54.9472694396973,144.069686889648,45.6006011962891,166.003,1833.997,800,"Pictures_Onset",733.991,"08","Sugary",8,50,55,3,"no","up","Right",0,"FS","FL",17,"up",597,1,"Students08"
67,0.609979212284088,0.470729112625122,53.3447952270508,145.210205078125,46.0145797729492,249.997,2082.995,1048.998,"Pictures_Onset",982.989,"08","Healthy",8,50,55,3,"no","up","Right",0,"FS","FL",17,"up",597,1,"Students08"
67,0.639623701572418,0.473559141159058,67.5019302368164,144.494613647461,45.7540855407715,498.995,2383.002,1349.005,"Pictures_Onset",1282.996,"08","Healthy",8,50,55,3,"no","up","Right",0,"FS","FL",17,"up",597,1,"Students08"
68,0.394095242023468,0.499238073825836,-49.5183372497559,138.020950317383,43.3997611999512,216,1232.998,199.001,"Pictures_Onset",132.992,"08","Healthy",8,50,55,4,"no","up","Right",1,"FL","FS",17,"up",483,1,"Students08"
68,0.630333364009857,0.486487179994583,63.0869178771973,141.207962036133,44.5587158203125,200.999,1598.003,564.006,"Pictures_Onset",497.997,"08","Sugary",8,50,55,4,"no","up","Right",1,"FL","FS",17,"up",483,1,"Students08"
68,0.63061112165451,0.489999979734421,63.1859283447266,140.355163574219,44.2485198974609,281.997,1832,798.003,"Pictures_Onset",731.994,"08","Sugary",8,50,55,4,"no","up","Right",1,"FL","FS",17,"up",483,1,"Students08"
68,0.640487134456635,0.469384610652924,67.9079513549805,145.541275024414,46.135383605957,199.001,2147.994,1113.997,"Pictures_Onset",1047.988,"08","Sugary",8,50,55,4,"no","up","Right",1,"FL","FS",17,"up",483,1,"Students08"
68,0.395249962806702,0.497333317995071,-48.9916648864746,138.518325805664,43.5787506103516,116.992,2414.003,1380.006,"Pictures_Onset",1313.997,"08","Healthy",8,50,55,4,"no","up","Right",1,"FL","FS",17,"up",483,1,"Students08"
68,0.390074104070663,0.497222274541855,-51.4407424926758,138.52961730957,43.582592010498,133.004,2563.994,1529.997,"Pictures_Onset",1463.988,"08","Healthy",8,50,55,4,"no","up","Right",1,"FL","FS",17,"up",483,1,"Students08"
68,0.369479119777679,0.495479136705399,-61.25,138.990829467773,43.7506294250488,249.997,2729.997,1696,"Pictures_Onset",1629.991,"08","Healthy",8,50,55,4,"no","up","Right",1,"FL","FS",17,"up",483,1,"Students08"
69,0.400642871856689,0.456261903047562,-46.4028587341309,148.850250244141,47.3399963378906,216.998,1328,248.998,"Pictures_Onset",227.994,"08","Sugary",8,50,55,2,"no","down","Left",1,"FS","FL",18,"down",493,1,"Students08"
69,0.640820503234863,0.490025639533997,68.0400009155273,140.35205078125,44.2453880310059,199.002,1944,864.998,"Pictures_Onset",843.994,"08","Healthy",8,50,55,2,"no","down","Left",1,"FS","FL",18,"down",493,1,"Students08"
69,0.623384714126587,0.472230732440948,59.7297401428223,144.845123291016,45.8830757141113,200,2176.998,1097.996,"Pictures_Onset",1076.992,"08","Healthy",8,50,55,2,"no","down","Left",1,"FS","FL",18,"down",493,1,"Students08"
69,0.621846199035645,0.478923112154007,59.0476913452148,143.164611816406,45.2707710266113,199.001,2409.997,1330.995,"Pictures_Onset",1309.991,"08","Healthy",8,50,55,2,"no","down","Left",1,"FS","FL",18,"down",493,1,"Students08"
70,0.371296286582947,0.455796301364899,-60.4153785705566,148.963531494141,47.3812980651855,282.995,1226.995,133.005,"Pictures_Onset",126.989,"08","Healthy",8,50,55,3,"no","down","Left",0,"FL","FS",18,"down",495,1,"Students08"
70,0.607358992099762,0.477615386247635,52.1666679382324,143.466918945312,45.3823051452637,199.002,1592.998,499.008,"Pictures_Onset",492.992,"08","Sugary",8,50,55,3,"no","down","Left",0,"FL","FS",18,"down",495,1,"Students08"
70,0.63952773809433,0.480722218751907,67.4208374023438,142.693878173828,45.098331451416,183.001,1875.994,782.004,"Pictures_Onset",775.988,"08","Sugary",8,50,55,3,"no","down","Left",0,"FL","FS",18,"down",495,1,"Students08"
70,0.641333341598511,0.490166664123535,68.3416748046875,140.311660766602,44.2350006103516,166.003,2092.992,999.002,"Pictures_Onset",992.986,"08","Sugary",8,50,55,3,"no","down","Left",0,"FL","FS",18,"down",495,1,"Students08"
70,0.629571318626404,0.463571459054947,62.744441986084,147.001434326172,46.666820526123,332.006,2292.992,1199.002,"Pictures_Onset",1192.986,"08","Sugary",8,50,55,3,"no","down","Left",0,"FL","FS",18,"down",495,1,"Students08"
70,0.627583265304565,0.471533298492432,61.7636642456055,144.999496459961,45.9391670227051,317.005,2657.997,1564.007,"Pictures_Onset",1557.991,"08","Sugary",8,50,55,3,"no","down","Left",0,"FL","FS",18,"down",495,1,"Students08"
71,0.384813398122787,0.498053312301636,-53.9199981689453,138.315612792969,43.5046577453613,400,1231.002,199.002,"Pictures_Onset",130.996,"08","Sugary",8,50,55,4,"no","up","Right",0,"FS","FL",18,"up",596,1,"Students08"
71,0.599282085895538,0.518294870853424,48.2887153625488,133.239242553711,41.6584663391113,416,1697.997,665.997,"Pictures_Onset",597.991,"08","Healthy",8,50,55,4,"no","up","Right",0,"FS","FL",18,"up",596,1,"Students08"
71,0.643616676330566,0.503916621208191,69.4558410644531,136.835647583008,42.967170715332,316.006,2163.994,1131.994,"Pictures_Onset",1063.988,"08","Healthy",8,50,55,4,"no","up","Right",0,"FS","FL",18,"up",596,1,"Students08"
71,0.394277781248093,0.491472274065018,-49.4194450378418,139.999984741211,44.1191673278809,184,2578.995,1546.995,"Pictures_Onset",1478.989,"08","Sugary",8,50,55,4,"no","up","Right",0,"FS","FL",18,"up",596,1,"Students08"
71,0.394194453954697,0.502472221851349,-49.4919471740723,137.225280761719,43.1083335876465,184,2794.995,1762.995,"Pictures_Onset",1694.989,"08","Sugary",8,50,55,4,"no","up","Right",0,"FS","FL",18,"up",596,1,"Students08"
72,0.380755513906479,0.491622239351273,-55.9193305969238,139.923782348633,44.0908889770508,232,1232,200,"Pictures_Onset",131.994,"08","Healthy",8,50,55,1,"no","up","Right",1,"FL","FS",18,"up",496,1,"Students08"
72,0.597805559635162,0.497833341360092,47.5413856506348,138.375564575195,43.5266609191895,183.002,1547.008,515.008,"Pictures_Onset",447.002,"08","Sugary",8,50,55,1,"no","up","Right",1,"FL","FS",18,"up",496,1,"Students08"
72,0.64129626750946,0.486777782440186,68.2977676391602,141.167205810547,44.543701171875,283.994,1780.006,748.006,"Pictures_Onset",680,"08","Sugary",8,50,55,1,"no","up","Right",1,"FL","FS",18,"up",496,1,"Students08"
72,0.623518466949463,0.483259260654449,59.8370361328125,142.072402954102,44.8725929260254,283.008,2096,1064,"Pictures_Onset",995.994,"08","Sugary",8,50,55,1,"no","up","Right",1,"FL","FS",18,"up",496,1,"Students08"
72,0.387708336114883,0.495833307504654,-52.6016654968262,138.923538208008,43.727912902832,248.998,2463.002,1431.002,"Pictures_Onset",1362.996,"08","Healthy",8,50,55,1,"no","up","Right",1,"FL","FS",18,"up",496,1,"Students08"
72,0.372511178255081,0.484488874673843,-59.8095626831055,141.747772216797,44.7551116943359,232.013,2745.997,1713.997,"Pictures_Onset",1645.991,"08","Healthy",8,50,55,1,"no","up","Right",1,"FL","FS",18,"up",496,1,"Students08"
73,0.389368414878845,0.47205263376236,-51.8473663330078,144.876678466797,45.8936882019043,300.006,1219.994,200,"Pictures_Onset",119.988,"08","Sugary",8,50,55,3,"no","down","Left",1,"FS","FL",19,"down",495,1,"Students08"
73,0.395500004291534,0.453333348035812,-48.939582824707,149.608337402344,47.6162490844727,115.994,1552.998,533.004,"Pictures_Onset",452.992,"08","Sugary",8,50,55,3,"no","down","Left",1,"FS","FL",19,"down",495,1,"Students08"
73,0.621492803096771,0.464912980794907,58.7939186096191,146.679000854492,46.5497055053711,364.992,1752.998,733.004,"Pictures_Onset",652.992,"08","Healthy",8,50,55,3,"no","down","Left",1,"FS","FL",19,"down",495,1,"Students08"
73,0.399037063121796,0.448148131370544,-47.2503700256348,150.886291503906,48.0814819335938,132.992,2184.998,1165.004,"Pictures_Onset",1084.992,"08","Sugary",8,50,55,3,"no","down","Left",1,"FS","FL",19,"down",495,1,"Students08"
73,0.627854108810425,0.491583287715912,61.9241676330566,139.946884155273,44.098331451416,249.997,2417.997,1398.003,"Pictures_Onset",1317.991,"08","Healthy",8,50,55,3,"no","down","Left",1,"FS","FL",19,"down",495,1,"Students08"
73,0.660750031471252,0.464805573225021,77.4916687011719,146.733047485352,46.5700035095215,182.003,2734.989,1714.995,"Pictures_Onset",1634.983,"08","Healthy",8,50,55,3,"no","down","Left",1,"FS","FL",19,"down",495,1,"Students08"
74,0.617787897586823,0.491878777742386,57.1060638427734,139.898178100586,44.0824241638184,165.99,1383.002,349.005,"Pictures_Onset",282.996,"08","Sugary",8,50,55,4,"no","down","Left",0,"FL","FS",19,"down",563,1,"Students08"
74,0.627749979496002,0.497291684150696,61.7454147338867,138.51708984375,43.5787506103516,115.994,1766.003,732.006,"Pictures_Onset",665.997,"08","Sugary",8,50,55,4,"no","down","Left",0,"FL","FS",19,"down",563,1,"Students08"
74,0.62794440984726,0.491574019193649,61.9409255981445,139.954071044922,44.1012916564941,283.008,1914.995,880.998,"Pictures_Onset",814.989,"08","Sugary",8,50,55,4,"no","down","Left",0,"FL","FS",19,"down",563,1,"Students08"
74,0.625388920307159,0.507986128330231,60.7263793945312,135.823745727539,42.5993041992188,382.003,2232,1198.003,"Pictures_Onset",1131.994,"08","Sugary",8,50,55,4,"no","down","Left",0,"FL","FS",19,"down",563,1,"Students08"
74,0.602222144603729,0.472044467926025,49.6113319396973,144.916442871094,45.9073371887207,233.996,2647.002,1613.005,"Pictures_Onset",1546.996,"08","Sugary",8,50,55,4,"no","down","Left",0,"FL","FS",19,"down",563,1,"Students08"
75,0.390277743339539,0.485777795314789,-51.3055572509766,141.377014160156,44.6199989318848,282.995,1240,216,"Pictures_Onset",139.994,"08","Sugary",8,50,55,1,"no","up","Right",0,"FS","FL",19,"up",546,1,"Students08"
75,0.359499990940094,0.506999969482422,-66.0500030517578,136.081665039062,42.6949996948242,183.002,1556.992,532.992,"Pictures_Onset",456.986,"08","Sugary",8,50,55,1,"no","up","Right",0,"FS","FL",19,"up",546,1,"Students08"
75,0.383305579423904,0.485944420099258,-54.6716728210449,141.372787475586,44.6186180114746,182.989,1789.005,765.005,"Pictures_Onset",688.999,"08","Sugary",8,50,55,1,"no","up","Right",0,"FS","FL",19,"up",546,1,"Students08"
75,0.357530355453491,0.469287902116776,-66.9743957519531,145.5986328125,46.156364440918,349.991,2022.003,998.003,"Pictures_Onset",921.997,"08","Sugary",8,50,55,1,"no","up","Right",0,"FS","FL",19,"up",546,1,"Students08"
75,0.394575774669647,0.460393905639648,-49.3466682434082,147.834854125977,46.9699974060059,165.991,2422.003,1398.003,"Pictures_Onset",1321.997,"08","Sugary",8,50,55,1,"no","up","Right",0,"FS","FL",19,"up",546,1,"Students08"
75,0.619966626167297,0.487666666507721,58.1660079956055,140.92448425293,44.4551658630371,315.994,2672,1648,"Pictures_Onset",1571.994,"08","Healthy",8,50,55,1,"no","up","Right",0,"FS","FL",19,"up",546,1,"Students08"
76,0.397500038146973,0.476166635751724,-47.9066696166992,143.832916259766,45.5149993896484,115.994,1336,298.01,"Pictures_Onset",235.994,"08","Healthy",8,50,55,2,"no","up","Right",1,"FL","FS",19,"up",550,1,"Students08"
76,0.607200026512146,0.481333345174789,52.126335144043,142.528991699219,45.039665222168,150.004,1536.998,499.008,"Pictures_Onset",436.992,"08","Sugary",8,50,55,2,"no","up","Right",1,"FL","FS",19,"up",550,1,"Students08"
76,0.430242449045181,0.446060627698898,-32.2815132141113,151.448181152344,48.28515625,165.99,1752,714.01,"Pictures_Onset",651.994,"08","Healthy",8,50,55,2,"no","up","Right",1,"FL","FS",19,"up",550,1,"Students08"
76,0.587583303451538,0.460766643285751,42.7123336791992,147.712844848633,46.9264984130859,315.994,2184.998,1147.008,"Pictures_Onset",1084.992,"08","Sugary",8,50,55,2,"no","up","Right",1,"FL","FS",19,"up",550,1,"Students08"
76,0.408012807369232,0.443448722362518,-42.9129447937012,152.094863891602,48.5211563110352,416.998,2567.002,1529.012,"Pictures_Onset",1466.996,"08","Healthy",8,50,55,2,"no","up","Right",1,"FL","FS",19,"up",550,1,"Students08"
77,0.398384600877762,0.489384651184082,-47.4607696533203,140.506683349609,44.3028221130371,200,1226.995,198.989,"Pictures_Onset",126.989,"08","Sugary",8,50,55,4,"no","down","Left",1,"FS","FL",20,"down",578,1,"Students08"
77,0.372500002384186,0.499733299016953,-59.7919998168945,137.906341552734,43.357666015625,149.991,1460.006,432,"Pictures_Onset",360,"08","Sugary",8,50,55,4,"no","down","Left",1,"FS","FL",20,"down",578,1,"Students08"
77,0.636533439159393,0.510822176933289,66.0040054321289,135.080657958984,42.327995300293,234.009,1675.994,647.988,"Pictures_Onset",575.988,"08","Healthy",8,50,55,4,"no","down","Left",1,"FS","FL",20,"down",578,1,"Students08"
77,0.617897570133209,0.498564124107361,57.1448707580566,138.221542358398,43.4725608825684,199.001,1943.002,914.996,"Pictures_Onset",842.996,"08","Healthy",8,50,55,4,"no","down","Left",1,"FS","FL",20,"down",578,1,"Students08"
77,0.635545372962952,0.478742390871048,65.5078811645508,143.165298461914,45.2701530456543,349.005,2176,1147.994,"Pictures_Onset",1075.994,"08","Healthy",8,50,55,4,"no","down","Left",1,"FS","FL",20,"down",578,1,"Students08"
77,0.609466671943665,0.51128888130188,53.1324424743652,134.993789672852,42.2955551147461,232.998,2575.002,1546.996,"Pictures_Onset",1474.996,"08","Healthy",8,50,55,4,"no","down","Left",1,"FS","FL",20,"down",578,1,"Students08"
77,0.597333371639252,0.532625019550323,47.374584197998,129.623748779297,40.3416633605957,116.006,2857.997,1829.991,"Pictures_Onset",1757.991,"08","Healthy",8,50,55,4,"no","down","Left",1,"FS","FL",20,"down",578,1,"Students08"
78,0.378666669130325,0.482071429491043,-56.8130989074707,142.35285949707,44.9754753112793,216,1240,215.002,"Pictures_Onset",139.994,"08","Healthy",8,50,55,1,"no","down","Left",0,"FL","FS",20,"down",522,1,"Students08"
78,0.613878786563873,0.480666667222977,55.274845123291,142.697265625,45.0993957519531,164.992,1524.006,499.008,"Pictures_Onset",424,"08","Sugary",8,50,55,1,"no","down","Left",0,"FL","FS",20,"down",522,1,"Students08"
78,0.637377798557281,0.513288915157318,66.4086608886719,134.501342773438,42.1175498962402,232,1806.003,781.005,"Pictures_Onset",705.997,"08","Sugary",8,50,55,1,"no","down","Left",0,"FL","FS",20,"down",522,1,"Students08"
78,0.634761929512024,0.520904719829559,65.1571502685547,132.565719604492,41.41357421875,216,2072,1047.002,"Pictures_Onset",971.994,"08","Sugary",8,50,55,1,"no","down","Left",0,"FL","FS",20,"down",522,1,"Students08"
78,0.61299991607666,0.429025679826736,54.8589706420898,155.731781005859,49.8438453674316,200,2337.997,1312.999,"Pictures_Onset",1237.991,"08","Sugary",8,50,55,1,"no","down","Left",0,"FL","FS",20,"down",522,1,"Students08"
78,0.389794826507568,0.475230753421783,-51.6330757141113,144.047439575195,45.5925674438477,200,2604.006,1579.008,"Pictures_Onset",1504,"08","Healthy",8,50,55,1,"no","down","Left",0,"FL","FS",20,"down",522,1,"Students08"
78,0.366333335638046,0.476296275854111,-62.7855567932129,143.804809570312,45.5018539428711,133.99,2837.005,1812.007,"Pictures_Onset",1736.999,"08","Healthy",8,50,55,1,"no","down","Left",0,"FL","FS",20,"down",522,1,"Students08"
79,0.406641006469727,0.471076995134354,-43.5376930236816,145.123077392578,45.9838447570801,200,1241.997,216.999,"Pictures_Onset",141.991,"08","Sugary",8,50,55,2,"no","up","Right",0,"FS","FL",20,"up",517,1,"Students08"
79,0.616976201534271,0.471428602933884,56.7204780578613,145.042877197266,45.9535713195801,216,1559.002,534.004,"Pictures_Onset",458.996,"08","Healthy",8,50,55,2,"no","up","Right",0,"FS","FL",20,"up",517,1,"Students08"
79,0.407500028610229,0.47189998626709,-43.1440010070801,144.945999145508,45.9183349609375,149.005,2208,1183.002,"Pictures_Onset",1107.994,"08","Sugary",8,50,55,2,"no","up","Right",0,"FS","FL",20,"up",517,1,"Students08"
79,0.62986421585083,0.472370356321335,62.8073997497559,144.796295166016,45.864200592041,433.996,2423.002,1398.004,"Pictures_Onset",1322.996,"08","Healthy",8,50,55,2,"no","up","Right",0,"FS","FL",20,"up",517,1,"Students08"
80,0.377250015735626,0.471041679382324,-57.5945816040039,145.129577636719,45.9862480163574,114.995,1230.003,200,"Pictures_Onset",129.997,"08","Healthy",8,50,55,3,"no","up","Right",1,"FL","FS",20,"up",525,1,"Students08"
80,0.595333397388458,0.460145831108093,46.382495880127,147.862091064453,46.9797859191895,248.999,1528.998,498.995,"Pictures_Onset",428.992,"08","Sugary",8,50,55,3,"no","up","Right",1,"FL","FS",20,"up",525,1,"Students08"
80,0.633071422576904,0.456809520721436,64.3776245117188,148.747604370117,47.3023796081543,217.997,1861.005,831.002,"Pictures_Onset",760.999,"08","Sugary",8,50,55,3,"no","up","Right",1,"FL","FS",20,"up",525,1,"Students08"
80,0.391066640615463,0.470711082220078,-50.9388885498047,145.194427490234,46.0100059509277,232.999,2144.998,1114.995,"Pictures_Onset",1044.992,"08","Healthy",8,50,55,3,"no","up","Right",1,"FL","FS",20,"up",525,1,"Students08"
80,0.353575736284256,0.477151483297348,-68.8809051513672,143.570007324219,45.4184837341309,167.002,2426.995,1396.992,"Pictures_Onset",1326.989,"08","Healthy",8,50,55,3,"no","up","Right",1,"FL","FS",20,"up",525,1,"Students08"
80,0.371287822723389,0.453075706958771,-60.4149932861328,149.654418945312,47.6318244934082,350.003,2626.995,1596.992,"Pictures_Onset",1526.989,"08","Healthy",8,50,55,3,"no","up","Right",1,"FL","FS",20,"up",525,1,"Students08"
