"trial_id","sx","sy","px","py","pz","duration","timestamp","trial_onset","label","label_onset","subject_nr.x","AOI_visited","subject_nr.y","fat_craving","sugar_craving","Block","practice","Arrow_Direction","Arrow_Position","Congruence","Left_Picture","Right_Picture","Pair_Number","response","response_time","accuracy","part_ID"
1,0.380466669797897,0.471699953079224,-56.531665802002,145.622650146484,46.1653366088867,150.003,1223.002,200,"Pictures_Onset",165.005,"12","Salty",12,75,60,1,"no","up","Left",1,"FF","FL",1,"up",433,1,"Students12"
1,0.377846121788025,0.475897461175919,-57.7941055297852,144.586685180664,45.788459777832,199.002,1406.003,383.001,"Pictures_Onset",348.006,"12","Salty",12,75,60,1,"no","up","Left",1,"FF","FL",1,"up",433,1,"Students12"
1,0.402880936861038,0.463476210832596,-45.8102416992188,147.713348388672,46.9264259338379,216,1639.002,616,"Pictures_Onset",581.005,"12","Salty",12,75,60,1,"no","up","Left",1,"FF","FL",1,"up",433,1,"Students12"
1,0.403571367263794,0.469714254140854,-45.4330978393555,146.112152099609,46.3430976867676,216,1888.998,865.996,"Pictures_Onset",831.001,"12","Salty",12,75,60,1,"no","up","Left",1,"FF","FL",1,"up",433,1,"Students12"
1,0.617640018463135,0.474866628646851,56.9424057006836,144.806411743164,45.8687934875488,400,2188.006,1165.004,"Pictures_Onset",1130.009,"12","Healthy",12,75,60,1,"no","up","Left",1,"FF","FL",1,"up",433,1,"Students12"
1,0.390250027179718,0.466041684150696,-51.8847923278809,147.029800415039,46.6770858764648,117.004,2671.002,1648,"Pictures_Onset",1613.005,"12","Salty",12,75,60,1,"no","up","Left",1,"FF","FL",1,"up",433,1,"Students12"
2,0.357846140861511,0.504897475242615,-67.3425674438477,137.184875488281,43.0946197509766,199.002,1360.998,165.99,"Pictures_Onset",303.001,"12","Healthy",12,75,60,2,"no","up","Left",0,"FL","FF",1,"up",437,1,"Students12"
2,0.621388852596283,0.511749982833862,58.788890838623,135.492233276367,42.4772186279297,182.989,1627.008,432,"Pictures_Onset",569.011,"12","Salty",12,75,60,2,"no","up","Left",0,"FL","FF",1,"up",437,1,"Students12"
2,0.391624987125397,0.501333355903625,-51.1254119873047,138.07666015625,43.4195823669434,115.994,2027.008,832,"Pictures_Onset",969.011,"12","Healthy",12,75,60,2,"no","up","Left",0,"FL","FF",1,"up",437,1,"Students12"
2,0.392074048519135,0.506740748882294,-50.9114799499512,136.768157958984,42.9422225952148,134.003,2176,980.992,"Pictures_Onset",1118.003,"12","Healthy",12,75,60,2,"no","up","Left",0,"FL","FF",1,"up",437,1,"Students12"
2,0.393714278936386,0.516095280647278,-50.1928596496582,134.424758911133,42.0885696411133,100.006,2343.002,1147.994,"Pictures_Onset",1285.005,"12","Healthy",12,75,60,2,"no","up","Left",0,"FL","FF",1,"up",437,1,"Students12"
2,0.359645813703537,0.485833346843719,-66.463752746582,142.044998168945,44.8649978637695,116.660666666667,2492.006,1296.998,"Pictures_Onset",1434.009,"12","Healthy",12,75,60,2,"no","up","Left",0,"FL","FF",1,"up",437,1,"Students12"
2,0.633703649044037,0.504499971866608,64.6627655029297,137.314270019531,43.1416625976562,282.996,2692.006,1496.998,"Pictures_Onset",1634.009,"12","Salty",12,75,60,2,"no","up","Left",0,"FL","FF",1,"up",437,1,"Students12"
3,0.371777772903442,0.508481442928314,-60.6940765380859,136.319641113281,42.7796249389648,134.004,1224.998,198.988,"Pictures_Onset",167.001,"12","Salty",12,75,60,3,"no","down","Right",0,"FF","FL",1,"down",500,1,"Students12"
3,0.600953757762909,0.509777784347534,48.9883346557617,136.003143310547,42.6637077331543,582.003,1575.002,548.992,"Pictures_Onset",517.005,"12","Healthy",12,75,60,3,"no","down","Right",0,"FF","FL",1,"down",500,1,"Students12"
3,0.36724442243576,0.505933344364166,-62.8997802734375,136.949768066406,43.0068855285645,232.998,2224,1197.99,"Pictures_Onset",1166.003,"12","Salty",12,75,60,3,"no","down","Right",0,"FF","FL",1,"down",500,1,"Students12"
3,0.39670118689537,0.500919580459595,-48.7894287109375,138.225891113281,43.473217010498,467.008,2505.997,1479.987,"Pictures_Onset",1448,"12","Salty",12,75,60,3,"no","down","Right",0,"FF","FL",1,"down",500,1,"Students12"
4,0.617166697978973,0.481233298778534,56.7100028991699,143.216339111328,45.2893295288086,150.003,1329.997,298.995,"Pictures_Onset",272,"12","Salty",12,75,60,4,"no","down","Right",1,"FL","FF",1,"down",684,1,"Students12"
4,0.370686292648315,0.47599995136261,-61.208625793457,144.54020690918,45.7709808349609,266.995,1679.002,648,"Pictures_Onset",621.005,"12","Healthy",12,75,60,4,"no","down","Right",1,"FL","FF",1,"down",684,1,"Students12"
4,0.626477599143982,0.482540547847748,61.2443237304688,142.873153686523,45.1650466918945,598.989,2029.005,998.003,"Pictures_Onset",971.008,"12","Salty",12,75,60,4,"no","down","Right",1,"FL","FF",1,"down",684,1,"Students12"
4,0.341538429260254,0.488743633031845,-75.1253814697266,141.324371337891,44.6007690429688,200,2711.002,1680,"Pictures_Onset",1653.005,"12","Healthy",12,75,60,4,"no","down","Right",1,"FL","FF",1,"down",684,1,"Students12"
5,0.621600031852722,0.505133330821991,58.8482208251953,137.155548095703,43.0839958190918,233.996,1311.002,216,"Pictures_Onset",253.005,"12","Healthy",12,75,60,2,"no","up","Left",1,"FF","FL",2,"up",548,1,"Students12"
5,0.370259255170822,0.506888866424561,-61.4307403564453,136.720748901367,42.9255561828613,133.005,1777.997,682.995,"Pictures_Onset",720,"12","Salty",12,75,60,2,"no","up","Left",1,"FF","FL",2,"up",548,1,"Students12"
5,0.632638871669769,0.489041686058044,64.1479187011719,141.236251831055,44.5677795410156,383.002,1992.998,897.996,"Pictures_Onset",935.001,"12","Healthy",12,75,60,2,"no","up","Left",1,"FF","FL",2,"up",548,1,"Students12"
5,0.386791676282883,0.514041662216187,-53.5329170227051,134.934997558594,42.2749977111816,116.992,2509.005,1414.003,"Pictures_Onset",1451.008,"12","Salty",12,75,60,2,"no","up","Left",1,"FF","FL",2,"up",548,1,"Students12"
5,0.388266682624817,0.507833302021027,-52.7303352355957,136.475341796875,42.8349990844727,148.992,2676.006,1581.004,"Pictures_Onset",1618.009,"12","Salty",12,75,60,2,"no","up","Left",1,"FF","FL",2,"up",548,1,"Students12"
6,0.378259271383286,0.505592584609985,-57.543701171875,137.046661376953,43.0435180664062,282.995,1318.003,283.008,"Pictures_Onset",260.006,"12","Healthy",12,75,60,3,"no","up","Left",0,"FL","FF",2,"up",509,1,"Students12"
6,0.37628573179245,0.505809545516968,-58.5752372741699,136.955718994141,43.0123825073242,100.006,1633.997,599.002,"Pictures_Onset",576,"12","Healthy",12,75,60,3,"no","up","Left",0,"FL","FF",2,"up",509,1,"Students12"
6,0.619867861270905,0.512977004051208,58.0627593994141,135.168746948242,42.3602828979492,947.994,1816.998,782.003,"Pictures_Onset",759.001,"12","Salty",12,75,60,3,"no","up","Left",0,"FL","FF",2,"up",509,1,"Students12"
7,0.369487136602402,0.495923042297363,-61.7961502075195,139.51872253418,43.9443550109863,200,1219.994,183.002,"Pictures_Onset",161.997,"12","Salty",12,75,60,4,"no","down","Right",0,"FF","FL",2,"down",591,1,"Students12"
7,0.60180389881134,0.48690190911293,49.4103927612305,141.751968383789,44.7570610046387,266.009,1502.989,465.997,"Pictures_Onset",444.992,"12","Healthy",12,75,60,4,"no","down","Right",0,"FF","FL",2,"down",591,1,"Students12"
7,0.619701683521271,0.489333361387253,57.9247398376465,141.156311035156,44.5394744873047,299.994,1818.995,782.003,"Pictures_Onset",760.998,"12","Healthy",12,75,60,4,"no","down","Right",0,"FF","FL",2,"down",591,1,"Students12"
7,0.358313709497452,0.480117619037628,-67.1445159912109,143.500396728516,45.3925476074219,266.996,2200.998,1164.006,"Pictures_Onset",1143.001,"12","Salty",12,75,60,4,"no","down","Right",0,"FF","FL",2,"down",591,1,"Students12"
7,0.647684216499329,0.489789515733719,71.3766632080078,141.088241577148,44.5143890380859,300.007,2583.987,1546.995,"Pictures_Onset",1525.99,"12","Healthy",12,75,60,4,"no","down","Right",0,"FF","FL",2,"down",591,1,"Students12"
8,0.366944432258606,0.480444431304932,-63.0048141479492,143.40705871582,45.359447479248,281.997,1232.998,200,"Pictures_Onset",175.001,"12","Healthy",12,75,60,1,"no","down","Right",1,"FL","FF",2,"down",471,1,"Students12"
8,0.379416644573212,0.457833349704742,-57.0537490844727,149.10791015625,47.4320831298828,117.005,1648.998,616,"Pictures_Onset",591.001,"12","Healthy",12,75,60,1,"no","down","Right",1,"FL","FF",2,"down",471,1,"Students12"
8,0.378863632678986,0.45437878370285,-57.2889289855957,149.994842529297,47.7574234008789,349.991,1798.003,765.005,"Pictures_Onset",740.006,"12","Healthy",12,75,60,1,"no","down","Right",1,"FL","FF",2,"down",471,1,"Students12"
8,0.633000016212463,0.47787994146347,64.3166809082031,144.066665649414,45.5989303588867,400,2215.002,1182.004,"Pictures_Onset",1157.005,"12","Salty",12,75,60,1,"no","down","Right",1,"FL","FF",2,"down",471,1,"Students12"
8,0.366500020027161,0.468240737915039,-63.2162933349609,146.484252929688,46.4796295166016,282.996,2696.998,1664,"Pictures_Onset",1639.001,"12","Healthy",12,75,60,1,"no","down","Right",1,"FL","FF",2,"down",471,1,"Students12"
9,0.626333296298981,0.508263111114502,61.1528053283691,136.385604858398,42.8038635253906,299.993,1426.01,399.002,"Pictures_Onset",368.013,"12","Healthy",12,75,60,3,"no","up","Left",1,"FF","FL",3,"up",546,1,"Students12"
9,0.389583349227905,0.490770787000656,-52.2206268310547,140.792907714844,44.4070816040039,251.008,1958.003,930.995,"Pictures_Onset",900.006,"12","Salty",12,75,60,3,"no","up","Left",1,"FF","FL",3,"up",546,1,"Students12"
9,0.388688176870346,0.507994651794434,-52.5476341247559,136.427017211914,42.8177452087402,499.994,2241.011,1214.003,"Pictures_Onset",1183.014,"12","Salty",12,75,60,3,"no","up","Left",1,"FF","FL",3,"up",546,1,"Students12"
9,0.385777801275253,0.508805513381958,-53.9347229003906,136.219161987305,42.7433319091797,183.002,2774.003,1746.995,"Pictures_Onset",1716.006,"12","Salty",12,75,60,3,"no","up","Left",1,"FF","FL",3,"up",546,1,"Students12"
10,0.374687522649765,0.480822950601578,-59.3395805358887,143.31575012207,45.3257293701172,249.011,1260.992,233.997,"Pictures_Onset",202.995,"12","Healthy",12,75,60,4,"no","up","Left",0,"FL","FF",3,"up",432,1,"Students12"
10,0.352800041437149,0.517716646194458,-69.7269973754883,133.975830078125,41.9274978637695,315.994,1560,533.005,"Pictures_Onset",502.003,"12","Healthy",12,75,60,4,"no","up","Left",0,"FL","FF",3,"up",432,1,"Students12"
10,0.375454545021057,0.47009089589119,-58.8745498657227,146.069091796875,46.3284873962402,167.002,1992,965.005,"Pictures_Onset",934.003,"12","Healthy",12,75,60,4,"no","up","Left",0,"FL","FF",3,"up",432,1,"Students12"
10,0.627814769744873,0.485851883888245,61.7992553710938,142.026306152344,44.8585205078125,132.006,2225.997,1199.002,"Pictures_Onset",1168,"12","Salty",12,75,60,4,"no","up","Left",0,"FL","FF",3,"up",432,1,"Students12"
10,0.361200004816055,0.484333336353302,-65.7669906616211,142.427658081055,45.0003318786621,148.992,2559.002,1532.007,"Pictures_Onset",1501.005,"12","Healthy",12,75,60,4,"no","up","Left",0,"FL","FF",3,"up",432,1,"Students12"
10,0.334025651216507,0.453487247228622,-78.7930755615234,150.183319091797,47.8258895874023,199.987,2758.003,1731.008,"Pictures_Onset",1700.006,"12","Healthy",12,75,60,4,"no","up","Left",0,"FL","FF",3,"up",432,1,"Students12"
11,0.37949013710022,0.472392141819,-56.9878425598145,145.467041015625,46.1094131469727,265.997,1233.011,150.003,"Pictures_Onset",175.014,"12","Salty",12,75,60,1,"no","down","Right",0,"FF","FL",3,"down",466,1,"Students12"
11,0.631555497646332,0.475944370031357,63.6507415771484,144.55647277832,45.7766647338867,282.995,1582.003,498.995,"Pictures_Onset",524.006,"12","Healthy",12,75,60,1,"no","down","Right",0,"FF","FL",3,"down",466,1,"Students12"
11,0.609846234321594,0.48492306470871,53.3138465881348,142.284881591797,44.9479446411133,200,1899.008,816,"Pictures_Onset",841.011,"12","Healthy",12,75,60,1,"no","down","Right",0,"FF","FL",3,"down",466,1,"Students12"
11,0.602019608020782,0.449803978204727,49.4839210510254,151.1513671875,48.1782379150391,266.009,2215.002,1131.994,"Pictures_Onset",1157.005,"12","Healthy",12,75,60,1,"no","down","Right",0,"FF","FL",3,"down",466,1,"Students12"
11,0.645272612571716,0.416848480701447,70.1880340576172,159.488174438477,51.2125816345215,350.003,2547.008,1464,"Pictures_Onset",1489.011,"12","Healthy",12,75,60,1,"no","down","Right",0,"FF","FL",3,"down",466,1,"Students12"
12,0.622313737869263,0.514568686485291,59.1611709594727,134.78254699707,42.2198066711426,265.997,1509.005,349.005,"Pictures_Onset",451.008,"12","Salty",12,75,60,2,"no","down","Right",1,"FL","FF",3,"down",595,1,"Students12"
12,0.365193009376526,0.494508802890778,-63.8150825500488,139.853515625,44.0656127929688,300.006,1857.997,697.997,"Pictures_Onset",800,"12","Healthy",12,75,60,2,"no","down","Right",1,"FL","FF",3,"down",595,1,"Students12"
12,0.343458354473114,0.481333315372467,-74.247917175293,143.170837402344,45.2729187011719,116.006,2192,1032,"Pictures_Onset",1134.003,"12","Healthy",12,75,60,2,"no","down","Right",1,"FL","FF",3,"down",595,1,"Students12"
12,0.626913607120514,0.498530805110931,61.4400062561035,138.853454589844,43.7016067504883,432,2391.002,1231.002,"Pictures_Onset",1333.005,"12","Salty",12,75,60,2,"no","down","Right",1,"FL","FF",3,"down",595,1,"Students12"
13,0.365384608507156,0.498102605342865,-63.7282066345215,138.926910400391,43.7274398803711,199.987,1235.008,150.003,"Pictures_Onset",177.011,"12","Salty",12,75,60,4,"no","up","Left",1,"FF","FL",4,"up",508,1,"Students12"
13,0.620727300643921,0.488818198442459,58.4151496887207,141.295761108398,44.5904502868652,350.003,1551.002,465.997,"Pictures_Onset",493.005,"12","Healthy",12,75,60,4,"no","up","Left",1,"FF","FL",4,"up",508,1,"Students12"
13,0.362291693687439,0.510562479496002,-65.1731262207031,135.782928466797,42.5845832824707,249.996,1983.002,897.997,"Pictures_Onset",925.005,"12","Salty",12,75,60,4,"no","up","Left",1,"FF","FL",4,"up",508,1,"Students12"
13,0.63162499666214,0.481687486171722,63.6570854187012,143.090637207031,45.2456245422363,248.999,2300.006,1215.001,"Pictures_Onset",1242.009,"12","Healthy",12,75,60,4,"no","up","Left",1,"FF","FL",4,"up",508,1,"Students12"
13,0.596530318260193,0.475136369466782,46.8780288696289,144.727737426758,45.8382568359375,349.005,2600,1514.995,"Pictures_Onset",1542.003,"12","Healthy",12,75,60,4,"no","up","Left",1,"FF","FL",4,"up",508,1,"Students12"
14,0.442766666412354,0.465299993753433,-26.6916694641113,147.241653442383,46.7540016174316,149.991,1036.006,0,"Pictures_Onset",-21.991,"12","Healthy",12,75,60,1,"no","up","Left",0,"FL","FF",4,"up",451,1,"Students12"
14,0.387314826250076,0.470703721046448,-53.1803741455078,145.858337402344,46.250373840332,284.007,1234.995,198.989,"Pictures_Onset",176.998,"12","Healthy",12,75,60,1,"no","up","Left",0,"FL","FF",4,"up",451,1,"Students12"
14,0.62244439125061,0.48884129524231,59.2279472351074,141.281921386719,44.5853958129883,332.006,1601.997,565.991,"Pictures_Onset",544,"12","Salty",12,75,60,1,"no","up","Left",0,"FL","FF",4,"up",451,1,"Students12"
14,0.652630925178528,0.473809510469437,73.6891708374023,145.094039916992,45.9728584289551,448.999,2000.998,964.992,"Pictures_Onset",943.001,"12","Salty",12,75,60,1,"no","up","Left",0,"FL","FF",4,"up",451,1,"Students12"
14,0.382486641407013,0.493446707725525,-55.5295295715332,140.116943359375,44.1616668701172,399.001,2567.002,1530.996,"Pictures_Onset",1509.005,"12","Healthy",12,75,60,1,"no","up","Left",0,"FL","FF",4,"up",451,1,"Students12"
15,0.376599997282028,0.493666648864746,-58.3899955749512,140.047332763672,44.1366653442383,150.003,1240,216,"Pictures_Onset",182.003,"12","Salty",12,75,60,2,"no","down","Right",0,"FF","FL",4,"down",404,1,"Students12"
15,0.616246402263641,0.508318841457367,56.3050765991211,136.351440429688,42.7908706665039,366.003,1456,432,"Pictures_Onset",398.003,"12","Healthy",12,75,60,2,"no","down","Right",0,"FF","FL",4,"down",404,1,"Students12"
15,0.616708278656006,0.503374993801117,56.6145858764648,137.621673583984,43.2558364868164,116.992,1855.002,831.002,"Pictures_Onset",797.005,"12","Healthy",12,75,60,2,"no","down","Right",0,"FF","FL",4,"down",404,1,"Students12"
15,0.350019633769989,0.514274537563324,-71.0625610351562,134.878036499023,42.2548980712891,265.996,2039.002,1015.002,"Pictures_Onset",981.005,"12","Salty",12,75,60,2,"no","down","Right",0,"FF","FL",4,"down",404,1,"Students12"
15,0.383625000715256,0.460833340883255,-55.0862464904785,148.383331298828,47.1708335876465,116.992,2405.005,1381.005,"Pictures_Onset",1347.008,"12","Salty",12,75,60,2,"no","down","Right",0,"FF","FL",4,"down",404,1,"Students12"
15,0.608861148357391,0.499624997377396,52.7794456481934,138.533309936523,43.5847206115723,384,2604.006,1580.006,"Pictures_Onset",1546.009,"12","Healthy",12,75,60,2,"no","down","Right",0,"FF","FL",4,"down",404,1,"Students12"
16,0.364111065864563,0.514066636562347,-64.3262252807617,134.901550292969,42.2626609802246,232.998,1368,315.994,"Pictures_Onset",310.003,"12","Healthy",12,75,60,3,"no","down","Right",1,"FL","FF",4,"down",468,1,"Students12"
16,0.634774267673492,0.529107570648193,65.1748428344727,131.113220214844,40.8843002319336,498.995,1751.002,698.996,"Pictures_Onset",693.005,"12","Salty",12,75,60,3,"no","down","Right",1,"FL","FF",4,"down",468,1,"Students12"
16,0.628515183925629,0.461909085512161,62.1821250915527,148.09211730957,47.0636367797852,166.989,2299.008,1247.002,"Pictures_Onset",1241.011,"12","Salty",12,75,60,3,"no","down","Right",1,"FL","FF",4,"down",468,1,"Students12"
16,0.384958386421204,0.511333346366882,-54.3175010681152,135.614166259766,42.522087097168,116.992,2532.006,1480,"Pictures_Onset",1474.009,"12","Healthy",12,75,60,3,"no","down","Right",1,"FL","FF",4,"down",468,1,"Students12"
16,0.38654163479805,0.513625025749207,-53.6991653442383,135.015838623047,42.3033294677734,116.006,2681.997,1629.991,"Pictures_Onset",1624,"12","Healthy",12,75,60,3,"no","down","Right",1,"FL","FF",4,"down",468,1,"Students12"
16,0.384233325719833,0.516266703605652,-54.629997253418,134.352005004883,42.0633316040039,150.003,2832,1779.994,"Pictures_Onset",1774.003,"12","Healthy",12,75,60,3,"no","down","Right",1,"FL","FF",4,"down",468,1,"Students12"
17,0.377962946891785,0.471629619598389,-57.7311134338379,145.618148803711,46.1633377075195,133.004,1247.002,216.999,"Pictures_Onset",189.005,"12","Salty",12,75,60,1,"no","up","Left",1,"FF","FL",5,"up",506,1,"Students12"
17,0.619434714317322,0.487405776977539,57.8291397094727,141.663772583008,44.7246398925781,366.004,1512.998,482.995,"Pictures_Onset",455.001,"12","Healthy",12,75,60,1,"no","up","Left",1,"FF","FL",5,"up",506,1,"Students12"
17,0.364291667938232,0.462500035762787,-64.1812515258789,147.932083129883,47.004997253418,116.006,2079.002,1048.999,"Pictures_Onset",1021.005,"12","Salty",12,75,60,1,"no","up","Left",1,"FF","FL",5,"up",506,1,"Students12"
17,0.596703708171844,0.483530849218369,46.9398765563965,142.617538452148,45.0712356567383,432.998,2544,1513.997,"Pictures_Onset",1486.003,"12","Healthy",12,75,60,1,"no","up","Left",1,"FF","FL",5,"up",506,1,"Students12"
18,0.374708354473114,0.498083293437958,-59.3150024414062,138.954162597656,43.7400054931641,116.006,1273.997,249.997,"Pictures_Onset",216,"12","Healthy",12,75,60,2,"no","up","Left",0,"FL","FF",5,"up",462,1,"Students12"
18,0.624916672706604,0.5,60.4387512207031,138.467926025391,43.562084197998,117.005,1472.998,448.998,"Pictures_Onset",415.001,"12","Salty",12,75,60,2,"no","up","Left",0,"FL","FF",5,"up",462,1,"Students12"
18,0.378088176250458,0.495833337306976,-57.6606826782227,139.505569458008,43.9391174316406,265.997,1840,816,"Pictures_Onset",782.003,"12","Healthy",12,75,60,2,"no","up","Left",0,"FL","FF",5,"up",462,1,"Students12"
18,0.374791651964188,0.490472197532654,-59.1986122131348,140.860961914062,44.4323616027832,382.003,2138.995,1114.995,"Pictures_Onset",1080.998,"12","Healthy",12,75,60,2,"no","up","Left",0,"FL","FF",5,"up",462,1,"Students12"
18,0.364333301782608,0.476615399122238,-64.2720489501953,144.368988037109,45.7084579467773,416,2554.995,1530.995,"Pictures_Onset",1496.998,"12","Healthy",12,75,60,2,"no","up","Left",0,"FL","FF",5,"up",462,1,"Students12"
19,0.38016664981842,0.454233318567276,-56.7223320007324,149.994338989258,47.7553329467773,150.003,1158.003,133.005,"Pictures_Onset",100.006,"12","Salty",12,75,60,3,"no","down","Right",0,"FF","FL",5,"down",468,1,"Students12"
19,0.622971415519714,0.520790457725525,59.5218048095703,133.218963623047,41.6505699157715,566.003,1391.002,366.004,"Pictures_Onset",333.005,"12","Healthy",12,75,60,3,"no","down","Right",0,"FF","FL",5,"down",468,1,"Students12"
19,0.380666673183441,0.540291666984558,-56.3989562988281,128.274169921875,39.8512496948242,250.01,2072.998,1048,"Pictures_Onset",1015.001,"12","Salty",12,75,60,3,"no","down","Right",0,"FF","FL",5,"down",468,1,"Students12"
19,0.355166673660278,0.535299956798553,-68.6226654052734,129.527679443359,40.3080024719238,149.99,2373.005,1348.007,"Pictures_Onset",1315.008,"12","Salty",12,75,60,3,"no","down","Right",0,"FF","FL",5,"down",468,1,"Students12"
19,0.352400004863739,0.52346670627594,-69.9863433837891,132.532333374023,41.4010009765625,148.992,2556.006,1531.008,"Pictures_Onset",1498.009,"12","Salty",12,75,60,3,"no","down","Right",0,"FF","FL",5,"down",468,1,"Students12"
20,0.370862692594528,0.476411759853363,-61.095100402832,144.428833007812,45.730785369873,266.995,1233.997,200,"Pictures_Onset",176,"12","Healthy",12,75,60,4,"no","down","Right",1,"FL","FF",5,"down",598,1,"Students12"
20,0.623703718185425,0.478185176849365,59.7844429016113,143.99333190918,45.5722236633301,134.003,1583.002,549.005,"Pictures_Onset",525.005,"12","Salty",12,75,60,4,"no","down","Right",1,"FL","FF",5,"down",598,1,"Students12"
20,0.629370331764221,0.477370321750641,62.5588912963867,144.165557861328,45.6337051391602,132.992,1750.003,716.006,"Pictures_Onset",692.006,"12","Salty",12,75,60,4,"no","down","Right",1,"FL","FF",5,"down",598,1,"Students12"
20,0.377454549074173,0.47272726893425,-57.9505996704102,145.335464477539,46.060302734375,165.991,1950.003,916.006,"Pictures_Onset",892.006,"12","Healthy",12,75,60,4,"no","down","Right",1,"FL","FF",5,"down",598,1,"Students12"
20,0.376249998807907,0.463874995708466,-58.495418548584,147.567077636719,46.8733329772949,116.992,2149.005,1115.008,"Pictures_Onset",1091.008,"12","Healthy",12,75,60,4,"no","down","Right",1,"FL","FF",5,"down",598,1,"Students12"
20,0.638833284378052,0.467888861894608,67.0927734375,146.565277099609,46.5088920593262,183.002,2348.992,1314.995,"Pictures_Onset",1290.995,"12","Salty",12,75,60,4,"no","down","Right",1,"FL","FF",5,"down",598,1,"Students12"
20,0.633015871047974,0.476619094610214,64.3361968994141,144.380950927734,45.7139587402344,331.994,2566.003,1532.006,"Pictures_Onset",1508.006,"12","Salty",12,75,60,4,"no","down","Right",1,"FL","FF",5,"down",598,1,"Students12"
21,0.363488852977753,0.520599961280823,-64.6035537719727,133.255554199219,41.6635589599609,233.997,1104,0,"Pictures_Onset",46.0029999999999,"12","Salty",12,75,60,2,"no","down","Left",1,"FF","FL",6,"down",472,1,"Students12"
21,0.62074077129364,0.495555549860001,58.4851875305176,139.61164855957,43.9753684997559,282.995,1420.992,316.992,"Pictures_Onset",362.995,"12","Healthy",12,75,60,2,"no","down","Left",1,"FF","FL",6,"down",472,1,"Students12"
21,0.622277736663818,0.502579271793365,59.1982650756836,137.815460205078,43.3231811523438,681.997,1736.998,632.998,"Pictures_Onset",679.001,"12","Healthy",12,75,60,2,"no","down","Left",1,"FF","FL",6,"down",472,1,"Students12"
21,0.368386656045914,0.508279979228973,-62.2627983093262,136.375061035156,42.798397064209,400,2501.99,1397.99,"Pictures_Onset",1443.993,"12","Salty",12,75,60,2,"no","down","Left",1,"FF","FL",6,"down",472,1,"Students12"
22,0.374589771032333,0.521897435188293,-59.3025665283203,132.941787719727,41.5494842529297,199.002,1216,184,"Pictures_Onset",158.003,"12","Healthy",12,75,60,3,"no","down","Left",0,"FL","FF",6,"down",509,1,"Students12"
22,0.625456690788269,0.521358013153076,60.689510345459,133.052474975586,41.5901222229004,432.998,1481.997,449.997,"Pictures_Onset",424,"12","Salty",12,75,60,3,"no","down","Left",0,"FL","FF",6,"down",509,1,"Students12"
22,0.626916646957397,0.525166630744934,61.3852806091309,132.116119384766,41.2497215270996,181.991,1948.006,916.006,"Pictures_Onset",890.009,"12","Salty",12,75,60,3,"no","down","Left",0,"FL","FF",6,"down",509,1,"Students12"
22,0.627235352993011,0.521353006362915,61.5513687133789,133.043334960938,41.5858840942383,266.009,2163.994,1131.994,"Pictures_Onset",1105.997,"12","Salty",12,75,60,3,"no","down","Left",0,"FL","FF",6,"down",509,1,"Students12"
22,0.347439348697662,0.499227255582809,-72.3039398193359,138.680313110352,43.6386375427246,349.005,2562.995,1530.995,"Pictures_Onset",1504.998,"12","Healthy",12,75,60,3,"no","down","Left",0,"FL","FF",6,"down",509,1,"Students12"
23,0.374193012714386,0.493649184703827,-59.5629806518555,140.070358276367,44.1447372436523,299.008,1264.998,232.998,"Pictures_Onset",207.001,"12","Salty",12,75,60,4,"no","up","Right",0,"FF","FL",6,"up",905,1,"Students12"
23,0.608946621417999,0.489186674356461,52.7751998901367,141.202133178711,44.5562629699707,399.002,1648,616,"Pictures_Onset",590.003,"12","Healthy",12,75,60,4,"no","up","Right",0,"FF","FL",6,"up",905,1,"Students12"
23,0.37201800942421,0.492072075605392,-60.5487289428711,140.467544555664,44.2881050109863,598.003,2113.997,1081.997,"Pictures_Onset",1056,"12","Salty",12,75,60,4,"no","up","Right",0,"FF","FL",6,"up",905,1,"Students12"
24,0.362874984741211,0.449874997138977,-64.9704132080078,151.144577026367,48.1741676330566,115.994,1272.998,249.996,"Pictures_Onset",215.001,"12","Healthy",12,75,60,1,"no","up","Right",1,"FL","FF",6,"up",621,1,"Students12"
24,0.622277796268463,0.482999950647354,59.1522216796875,142.73127746582,45.1127777099609,131.993,1505.997,482.995,"Pictures_Onset",448,"12","Salty",12,75,60,1,"no","up","Right",1,"FL","FF",6,"up",621,1,"Students12"
24,0.625685155391693,0.471092581748962,60.8209228515625,145.773895263672,46.2192573547363,133.323333333333,1671.66866666667,681.664666666667,"Pictures_Onset",646.669666666667,"12","Salty",12,75,60,1,"no","up","Right",1,"FL","FF",6,"up",621,1,"Students12"
24,0.377687513828278,0.468104183673859,-57.8116683959961,146.5283203125,46.4945869445801,249.996,1887.002,864,"Pictures_Onset",829.005,"12","Healthy",12,75,60,1,"no","up","Right",1,"FL","FF",6,"up",621,1,"Students12"
24,0.379833310842514,0.474999994039536,-56.7706680297852,144.822174072266,45.8740005493164,148.992,2238.003,1215.001,"Pictures_Onset",1180.006,"12","Healthy",12,75,60,1,"no","up","Right",1,"FL","FF",6,"up",621,1,"Students12"
24,0.382454037666321,0.477385133504868,-55.5506896972656,144.173324584961,45.637866973877,466.01,2420.992,1397.99,"Pictures_Onset",1362.995,"12","Healthy",12,75,60,1,"no","up","Right",1,"FL","FF",6,"up",621,1,"Students12"
25,0.375222235918045,0.546185195446014,-59.0229644775391,126.762222290039,39.3007431030273,133.005,1354.995,132.992,"Pictures_Onset",296.998,"12","Salty",12,75,60,3,"no","down","Left",1,"FF","FL",7,"down",621,1,"Students12"
25,0.608575761318207,0.511787891387939,52.6690940856934,135.454238891602,42.4642448425293,166.003,1570.995,348.992,"Pictures_Onset",512.998,"12","Healthy",12,75,60,3,"no","down","Left",1,"FF","FL",7,"down",621,1,"Students12"
25,0.377000004053116,0.488333314657211,-58.1388816833496,141.402236938477,44.6288871765137,232.998,1920,697.997,"Pictures_Onset",862.003,"12","Salty",12,75,60,3,"no","down","Left",1,"FF","FL",7,"down",621,1,"Students12"
25,0.376641064882278,0.485461533069611,-58.3166694641113,142.161285400391,44.9046173095703,200,2185.997,963.994,"Pictures_Onset",1128,"12","Salty",12,75,60,3,"no","down","Left",1,"FF","FL",7,"down",621,1,"Students12"
25,0.613233268260956,0.523100018501282,54.881664276123,132.635650634766,41.4379997253418,149.99,2469.005,1247.002,"Pictures_Onset",1411.008,"12","Healthy",12,75,60,3,"no","down","Left",1,"FF","FL",7,"down",621,1,"Students12"
25,0.432736843824387,0.511999905109406,-31.4671955108643,135.410690307617,42.4489440917969,300.006,2684.992,1462.989,"Pictures_Onset",1626.995,"12","Salty",12,75,60,3,"no","down","Left",1,"FF","FL",7,"down",621,1,"Students12"
26,0.409208327531815,0.417791664600372,-42.8229179382324,159.232086181641,51.1187515258789,116.007,1138.995,16.9979999999998,"Pictures_Onset",80.9979999999998,"12","Healthy",12,75,60,4,"no","down","Left",0,"FL","FF",7,"down",638,1,"Students12"
26,0.617277801036835,0.47709259390831,56.7424049377441,144.218887329102,45.6542625427246,283.008,1420.992,298.995,"Pictures_Onset",362.995,"12","Salty",12,75,60,4,"no","down","Left",0,"FL","FF",7,"down",638,1,"Students12"
26,0.320878773927689,0.519424259662628,-84.9496994018555,133.563949584961,41.7763633728027,167.002,1786.995,664.998,"Pictures_Onset",728.998,"12","Healthy",12,75,60,4,"no","down","Left",0,"FL","FF",7,"down",638,1,"Students12"
26,0.324648201465607,0.524111092090607,-83.2831573486328,132.373519897461,41.3435211181641,283.008,1986.995,864.998,"Pictures_Onset",928.998,"12","Healthy",12,75,60,4,"no","down","Left",0,"FL","FF",7,"down",638,1,"Students12"
26,0.382188379764557,0.479115933179855,-55.6891288757324,143.733779907227,45.4773864746094,367.002,2336,1214.003,"Pictures_Onset",1278.003,"12","Healthy",12,75,60,4,"no","down","Left",0,"FL","FF",7,"down",638,1,"Students12"
26,0.598651468753815,0.498439401388168,47.8378791809082,138.823623657227,43.6895446777344,167.001,2801.997,1680,"Pictures_Onset",1744,"12","Salty",12,75,60,4,"no","down","Left",0,"FL","FF",7,"down",638,1,"Students12"
27,0.448222279548645,0.444777756929398,-24.1159267425537,152.408142089844,48.6333351135254,134.003,1090.995,66.9949999999999,"Pictures_Onset",32.9979999999998,"12","Salty",12,75,60,1,"no","up","Right",0,"FF","FL",7,"up",531,1,"Students12"
27,0.38870832324028,0.459666669368744,-52.4670867919922,148.670837402344,47.2741661071777,117.005,1306.995,282.995,"Pictures_Onset",248.998,"12","Salty",12,75,60,1,"no","up","Right",0,"FF","FL",7,"up",531,1,"Students12"
27,0.6431884765625,0.468086987733841,69.173469543457,146.537399291992,46.4986953735352,366.003,1506.995,482.995,"Pictures_Onset",448.998,"12","Healthy",12,75,60,1,"no","up","Right",0,"FF","FL",7,"up",531,1,"Students12"
27,0.390476137399673,0.470071405172348,-51.6909523010254,146.012619018555,46.3076210021973,216,2040,1016,"Pictures_Onset",982.003,"12","Salty",12,75,60,1,"no","up","Right",0,"FF","FL",7,"up",531,1,"Students12"
27,0.381763428449631,0.465473115444183,-55.9489250183105,147.195159912109,46.7378463745117,500.007,2288.998,1264.998,"Pictures_Onset",1231.001,"12","Salty",12,75,60,1,"no","up","Right",0,"FF","FL",7,"up",531,1,"Students12"
27,0.378777772188187,0.446333289146423,-57.4907417297363,152.066299438477,48.5114860534668,132.992,2855.002,1831.002,"Pictures_Onset",1797.005,"12","Salty",12,75,60,1,"no","up","Right",0,"FF","FL",7,"up",531,1,"Students12"
28,0.379256427288055,0.490538477897644,-57.123592376709,140.888458251953,44.4420547485352,199.002,1232.998,150.003,"Pictures_Onset",175.001,"12","Healthy",12,75,60,2,"no","up","Right",1,"FL","FF",7,"up",492,1,"Students12"
28,0.616194427013397,0.50002783536911,56.3413887023926,138.433609008789,43.5491638183594,184,1497.997,415.002,"Pictures_Onset",440,"12","Salty",12,75,60,2,"no","up","Right",1,"FL","FF",7,"up",492,1,"Students12"
28,0.361614048480988,0.498684167861938,-65.4938583374023,138.822631835938,43.6905212402344,298.995,2048,965.005,"Pictures_Onset",990.003,"12","Healthy",12,75,60,2,"no","up","Right",1,"FL","FF",7,"up",492,1,"Students12"
28,0.387685179710388,0.464814811944962,-53.0503692626953,147.364639282227,46.7998161315918,132.992,2397.005,1314.01,"Pictures_Onset",1339.008,"12","Healthy",12,75,60,2,"no","up","Right",1,"FL","FF",7,"up",492,1,"Students12"
28,0.606733322143555,0.498033344745636,51.8083305358887,138.936996459961,43.7316665649414,149.99,2597.005,1514.01,"Pictures_Onset",1539.008,"12","Salty",12,75,60,2,"no","up","Right",1,"FL","FF",7,"up",492,1,"Students12"
28,0.406899988651276,0.50246661901474,-43.8883323669434,137.814315795898,43.322998046875,148.992,2830.003,1747.008,"Pictures_Onset",1772.006,"12","Healthy",12,75,60,2,"no","up","Right",1,"FL","FF",7,"up",492,1,"Students12"
29,0.398071438074112,0.447190463542938,-48.0557136535645,151.819747924805,48.4223823547363,216.998,1512,432,"Pictures_Onset",454.003,"12","Salty",12,75,60,4,"no","down","Left",1,"FF","FL",8,"down",1782,1,"Students12"
29,0.613882303237915,0.455313742160797,55.1831359863281,149.760589599609,47.6703910827637,265.996,1811.994,731.994,"Pictures_Onset",753.997,"12","Healthy",12,75,60,4,"no","down","Left",1,"FF","FL",8,"down",1782,1,"Students12"
29,0.6126349568367,0.462158709764481,54.6285705566406,148.057601928711,47.0496864318848,333.005,2410.995,1330.995,"Pictures_Onset",1352.998,"12","Healthy",12,75,60,4,"no","down","Left",1,"FF","FL",8,"down",1782,1,"Students12"
30,0.387250036001205,0.466944426298141,-53.2927703857422,146.79167175293,46.5916709899902,181.991,1238.003,151.001,"Pictures_Onset",180.006,"12","Healthy",12,75,60,1,"no","down","Left",0,"FL","FF",8,"down",445,1,"Students12"
30,0.626095294952393,0.486023813486099,60.9397621154785,142.008575439453,44.8504753112793,216,1504,416.998,"Pictures_Onset",446.003,"12","Salty",12,75,60,1,"no","down","Left",0,"FL","FF",8,"down",445,1,"Students12"
30,0.621757566928864,0.501424252986908,58.9087867736816,138.091812133789,43.4242401123047,167.002,1752.998,665.996,"Pictures_Onset",695.001,"12","Salty",12,75,60,1,"no","down","Left",0,"FL","FF",8,"down",445,1,"Students12"
30,0.38466665148735,0.479500025510788,-54.4741668701172,143.657913208008,45.4504165649414,116.006,1985.997,898.995,"Pictures_Onset",928,"12","Healthy",12,75,60,1,"no","down","Left",0,"FL","FF",8,"down",445,1,"Students12"
30,0.379104167222977,0.475010424852371,-57.1935501098633,144.784698486328,45.8606224060059,515.994,2136,1048.998,"Pictures_Onset",1078.003,"12","Healthy",12,75,60,1,"no","down","Left",0,"FL","FF",8,"down",445,1,"Students12"
30,0.377566635608673,0.445733368396759,-57.958667755127,152.209320068359,48.5610008239746,151.001,2683.994,1596.992,"Pictures_Onset",1625.997,"12","Healthy",12,75,60,1,"no","down","Left",0,"FL","FF",8,"down",445,1,"Students12"
30,0.376875013113022,0.456875026226044,-58.254997253418,149.363754272461,47.529167175293,117.004,2867.994,1780.992,"Pictures_Onset",1809.997,"12","Healthy",12,75,60,1,"no","down","Left",0,"FL","FF",8,"down",445,1,"Students12"
31,0.439075767993927,0.494227290153503,-28.5001525878906,139.928024291992,44.0922698974609,166.003,1024,0,"Pictures_Onset",-33.9970000000001,"12","Salty",12,75,60,2,"no","up","Right",0,"FF","FL",8,"up",447,1,"Students12"
31,0.366045504808426,0.503924310207367,-63.4369659423828,137.461517333984,43.1951522827148,349.005,1256.998,232.998,"Pictures_Onset",199.001,"12","Salty",12,75,60,2,"no","up","Right",0,"FF","FL",8,"up",447,1,"Students12"
31,0.411388903856277,0.465481489896774,-41.7174072265625,147.177780151367,46.7305526733398,133.005,1656,632,"Pictures_Onset",598.003,"12","Salty",12,75,60,2,"no","up","Right",0,"FF","FL",8,"up",447,1,"Students12"
31,0.626133322715759,0.496366679668427,61.0406608581543,139.419342041016,43.9059982299805,148.992,1856,832,"Pictures_Onset",798.003,"12","Healthy",12,75,60,2,"no","up","Right",0,"FF","FL",8,"up",447,1,"Students12"
31,0.628402292728424,0.489264279603958,62.1140365600586,141.196670532227,44.5554046630859,465.997,2038.003,1014.003,"Pictures_Onset",980.006,"12","Healthy",12,75,60,2,"no","up","Right",0,"FF","FL",8,"up",447,1,"Students12"
31,0.609315752983093,0.487631559371948,52.9645614624023,141.57160949707,44.6905250549316,298.995,2537.997,1513.997,"Pictures_Onset",1480,"12","Healthy",12,75,60,2,"no","up","Right",0,"FF","FL",8,"up",447,1,"Students12"
32,0.376166641712189,0.493416637182236,-58.5308303833008,140.112915039062,44.161247253418,116.006,1289.997,265.997,"Pictures_Onset",232,"12","Healthy",12,75,60,3,"no","up","Right",1,"FL","FF",8,"up",574,1,"Students12"
32,0.372564107179642,0.49730771780014,-60.2579498291016,139.130767822266,43.8012847900391,199.002,1440,416,"Pictures_Onset",382.003,"12","Healthy",12,75,60,3,"no","up","Right",1,"FL","FF",8,"up",574,1,"Students12"
32,0.630000054836273,0.520642876625061,62.8304748535156,133.257614135742,41.6657104492188,216,1721.997,697.997,"Pictures_Onset",664,"12","Salty",12,75,60,3,"no","up","Right",1,"FL","FF",8,"up",574,1,"Students12"
32,0.374138832092285,0.495666652917862,-59.5602760314941,139.580276489258,43.9666709899902,182.004,2304.998,1280.998,"Pictures_Onset",1247.001,"12","Healthy",12,75,60,3,"no","up","Right",1,"FL","FF",8,"up",574,1,"Students12"
32,0.602166652679443,0.50897616147995,49.5228614807129,136.212615966797,42.7388114929199,216.998,2704,1680,"Pictures_Onset",1646.003,"12","Salty",12,75,60,3,"no","up","Right",1,"FL","FF",8,"up",574,1,"Students12"
33,0.388555556535721,0.46403706073761,-52.6162986755371,147.550369262695,46.8674049377441,133.005,1320.998,265.996,"Pictures_Onset",263.001,"12","Salty",12,75,60,1,"no","down","Left",1,"FF","FL",9,"down",627,1,"Students12"
33,0.63003021478653,0.455530256032944,62.8633308410645,149.730743408203,47.6610565185547,349.005,1520.998,465.996,"Pictures_Onset",463.001,"12","Healthy",12,75,60,1,"no","down","Left",1,"FF","FL",9,"down",627,1,"Students12"
33,0.629192352294922,0.463243544101715,62.4998779296875,147.757446289062,46.9416580200195,416,1904,848.998,"Pictures_Onset",846.003,"12","Healthy",12,75,60,1,"no","down","Left",1,"FF","FL",9,"down",627,1,"Students12"
33,0.382999956607819,0.46080955862999,-55.3440475463867,148.389770507812,47.1719017028809,216,2402.995,1347.993,"Pictures_Onset",1344.998,"12","Salty",12,75,60,1,"no","down","Left",1,"FF","FL",9,"down",627,1,"Students12"
33,0.623636424541473,0.457272738218307,59.7996940612793,149.25666809082,47.4878807067871,167.002,2818.995,1763.993,"Pictures_Onset",1760.998,"12","Healthy",12,75,60,1,"no","down","Left",1,"FF","FL",9,"down",627,1,"Students12"
34,0.360146701335907,0.49548003077507,-66.2758560180664,139.625732421875,43.9824028015137,399.002,1232.998,200,"Pictures_Onset",175.001,"12","Healthy",12,75,60,2,"no","down","Left",0,"FL","FF",9,"down",578,1,"Students12"
34,0.370851874351501,0.489555507898331,-61.1666679382324,141.097030639648,44.5170402526855,133.005,1665.997,632.999,"Pictures_Onset",608,"12","Healthy",12,75,60,2,"no","down","Left",0,"FL","FF",9,"down",578,1,"Students12"
34,0.62339586019516,0.505062460899353,59.7587471008301,137.185424804688,43.0954132080078,248.998,1881.997,848.999,"Pictures_Onset",824,"12","Salty",12,75,60,2,"no","down","Left",0,"FL","FF",9,"down",578,1,"Students12"
34,0.624703705310822,0.501166641712189,60.4168548583984,138.146682739258,43.4446258544922,282.995,2165.005,1132.007,"Pictures_Onset",1107.008,"12","Salty",12,75,60,2,"no","down","Left",0,"FL","FF",9,"down",578,1,"Students12"
34,0.369461506605148,0.484974354505539,-61.8120536804199,142.27897644043,44.9487152099609,200,2513.997,1480.999,"Pictures_Onset",1456,"12","Healthy",12,75,60,2,"no","down","Left",0,"FL","FF",9,"down",578,1,"Students12"
35,0.617575764656067,0.510030269622803,56.9345436096191,135.974548339844,42.653938293457,167.002,1496,364.992,"Pictures_Onset",438.003,"12","Healthy",12,75,60,3,"no","up","Right",0,"FF","FL",9,"up",1052,1,"Students12"
35,0.616300046443939,0.505533337593079,56.2576675415039,137.05500793457,43.0459976196289,150.003,1879.002,747.994,"Pictures_Onset",821.005,"12","Healthy",12,75,60,3,"no","up","Right",0,"FF","FL",9,"up",1052,1,"Students12"
35,0.377577781677246,0.508955538272858,-57.8837776184082,136.244430541992,42.7531127929688,232.998,2095.002,963.994,"Pictures_Onset",1037.005,"12","Salty",12,75,60,3,"no","up","Right",0,"FF","FL",9,"up",1052,1,"Students12"
35,0.374249994754791,0.512125015258789,-59.5124969482422,135.394165039062,42.4408340454102,116.006,2361.997,1230.989,"Pictures_Onset",1304,"12","Salty",12,75,60,3,"no","up","Right",0,"FF","FL",9,"up",1052,1,"Students12"
35,0.355499982833862,0.520333349704742,-68.4777069091797,133.305404663086,41.6837501525879,248.998,2728,1596.992,"Pictures_Onset",1670.003,"12","Salty",12,75,60,3,"no","up","Right",0,"FF","FL",9,"up",1052,1,"Students12"
36,0.369199931621552,0.493311107158661,-61.8320045471191,140.159530639648,44.1766624450684,232.998,1256,232.998,"Pictures_Onset",198.003,"12","Healthy",12,75,60,4,"no","up","Right",1,"FL","FF",9,"up",590,1,"Students12"
36,0.623298823833466,0.498643636703491,59.6625289916992,138.761138916016,43.6677093505859,465.997,1554.995,531.993,"Pictures_Onset",496.998,"12","Salty",12,75,60,4,"no","up","Right",1,"FL","FF",9,"up",590,1,"Students12"
36,0.624366641044617,0.498833328485489,60.1889953613281,138.761001586914,43.6683387756348,148.992,2055.002,1032,"Pictures_Onset",997.005,"12","Salty",12,75,60,4,"no","up","Right",1,"FL","FF",9,"up",590,1,"Students12"
36,0.374333322048187,0.493111133575439,-59.4859275817871,140.196655273438,44.1911125183105,132.992,2271.002,1248,"Pictures_Onset",1213.005,"12","Healthy",12,75,60,4,"no","up","Right",1,"FL","FF",9,"up",590,1,"Students12"
36,0.370033323764801,0.485033363103867,-61.4913330078125,142.27165222168,44.945671081543,150.003,2436.992,1413.99,"Pictures_Onset",1378.995,"12","Healthy",12,75,60,4,"no","up","Right",1,"FL","FF",9,"up",590,1,"Students12"
36,0.624283194541931,0.475850045681,60.1328353881836,144.556518554688,45.7775039672852,315.993,2671.002,1648,"Pictures_Onset",1613.005,"12","Salty",12,75,60,4,"no","up","Right",1,"FL","FF",9,"up",590,1,"Students12"
37,0.440266698598862,0.471433341503143,-27.8513374328613,145.679656982422,46.1863327026367,149.991,1028.006,0,"Pictures_Onset",-29.991,"12","Salty",12,75,60,2,"no","down","Left",1,"FF","FL",10,"down",440,1,"Students12"
37,0.376433342695236,0.495666652917862,-58.3960037231445,139.550994873047,43.9556655883789,148.992,1228.006,200,"Pictures_Onset",170.009,"12","Salty",12,75,60,2,"no","down","Left",1,"FF","FL",10,"down",440,1,"Students12"
37,0.635679006576538,0.509666562080383,65.6181488037109,136.020004272461,42.6706199645996,432,1461.005,432.999,"Pictures_Onset",403.008,"12","Healthy",12,75,60,2,"no","down","Left",1,"FF","FL",10,"down",440,1,"Students12"
37,0.36719611287117,0.507901966571808,-62.8505859375,136.452560424805,42.8294067382812,266.01,1976,947.994,"Pictures_Onset",918.003,"12","Salty",12,75,60,2,"no","down","Left",1,"FF","FL",10,"down",440,1,"Students12"
37,0.378266662359238,0.468533337116241,-57.5919990539551,146.441009521484,46.4626693725586,151.002,2475.008,1447.002,"Pictures_Onset",1417.011,"12","Salty",12,75,60,2,"no","down","Left",1,"FF","FL",10,"down",440,1,"Students12"
37,0.376466691493988,0.462300002574921,-58.4246635437012,147.992340087891,47.0289993286133,149.99,2658.01,1630.004,"Pictures_Onset",1600.013,"12","Salty",12,75,60,2,"no","down","Left",1,"FF","FL",10,"down",440,1,"Students12"
38,0.38141667842865,0.504416704177856,-56.0574989318848,137.320266723633,43.1441688537598,183.002,1282.995,249.997,"Pictures_Onset",224.998,"12","Healthy",12,75,60,3,"no","down","Left",0,"FL","FF",10,"down",525,1,"Students12"
38,0.636680006980896,0.52049332857132,66.0742645263672,133.267181396484,41.6690711975098,399.001,1531.994,498.996,"Pictures_Onset",473.997,"12","Salty",12,75,60,3,"no","down","Left",0,"FL","FF",10,"down",525,1,"Students12"
38,0.612871766090393,0.479615390300751,54.6530723571777,143.603591918945,45.4307670593262,200,1981.005,948.007,"Pictures_Onset",923.008,"12","Salty",12,75,60,3,"no","down","Left",0,"FL","FF",10,"down",525,1,"Students12"
38,0.613488912582397,0.488822251558304,54.9846649169922,141.301345825195,44.5926666259766,232.998,2215.002,1182.004,"Pictures_Onset",1157.005,"12","Salty",12,75,60,3,"no","down","Left",0,"FL","FF",10,"down",525,1,"Students12"
38,0.388857126235962,0.510131001472473,-52.5107154846191,135.915832519531,42.6320190429688,449.011,2530.995,1497.997,"Pictures_Onset",1472.998,"12","Healthy",12,75,60,3,"no","down","Left",0,"FL","FF",10,"down",525,1,"Students12"
39,0.623148202896118,0.483259201049805,59.6781463623047,142.690368652344,45.0966644287109,133.005,1253.99,165.99,"Pictures_Onset",195.993,"12","Healthy",12,75,60,4,"no","up","Right",0,"FF","FL",10,"up",596,1,"Students12"
39,0.62116664648056,0.491196990013123,58.7001495361328,140.666519165039,44.3624229431152,165.991,1454.003,366.003,"Pictures_Onset",396.006,"12","Healthy",12,75,60,4,"no","up","Right",0,"FF","FL",10,"up",596,1,"Students12"
39,0.623192369937897,0.497397422790527,59.6775665283203,139.151397705078,43.8094863891602,200,1652.992,564.992,"Pictures_Onset",594.995,"12","Healthy",12,75,60,4,"no","up","Right",0,"FF","FL",10,"up",596,1,"Students12"
39,0.636047661304474,0.481428533792496,65.7688064575195,143.179046630859,45.2759475708008,216.998,2001.997,913.997,"Pictures_Onset",944,"12","Healthy",12,75,60,4,"no","up","Right",0,"FF","FL",10,"up",596,1,"Students12"
39,0.637095272541046,0.489999979734421,66.2880935668945,140.981903076172,44.4766654968262,100.006,2251.994,1163.994,"Pictures_Onset",1193.997,"12","Healthy",12,75,60,4,"no","up","Right",0,"FF","FL",10,"up",596,1,"Students12"
39,0.372878760099411,0.480348408222198,-60.1215171813965,143.43424987793,45.3696937561035,349.005,2418.995,1330.995,"Pictures_Onset",1360.998,"12","Salty",12,75,60,4,"no","up","Right",0,"FF","FL",10,"up",596,1,"Students12"
40,0.38629999756813,0.472833335399628,-53.7473335266113,145.342315673828,46.0626640319824,150.003,1394.995,165.99,"Pictures_Onset",336.998,"12","Healthy",12,75,60,1,"no","up","Right",1,"FL","FF",10,"up",364,1,"Students12"
40,0.627711117267609,0.474422186613083,61.7664413452148,144.918884277344,45.9093284606934,233.997,1628.006,399.001,"Pictures_Onset",570.009,"12","Salty",12,75,60,1,"no","up","Right",1,"FL","FF",10,"up",364,1,"Students12"
40,0.642916738986969,0.430777758359909,69.1030578613281,155.958618164062,49.9280548095703,183.002,1894.003,664.998,"Pictures_Onset",836.006,"12","Salty",12,75,60,1,"no","up","Right",1,"FL","FF",10,"up",364,1,"Students12"
40,0.381642878055573,0.492809534072876,-55.9511909484863,140.285705566406,44.2223854064941,217.011,2209.997,980.992,"Pictures_Onset",1152,"12","Healthy",12,75,60,1,"no","up","Right",1,"FL","FF",10,"up",364,1,"Students12"
40,0.648876488208771,0.496407359838486,71.9243240356445,139.378265380859,43.8928375244141,432,2510.003,1280.998,"Pictures_Onset",1452.006,"12","Salty",12,75,60,1,"no","up","Right",1,"FL","FF",10,"up",364,1,"Students12"
41,0.368499994277954,0.511229157447815,-62.261661529541,135.621047973633,42.5256233215332,249.997,1326.003,232.998,"Pictures_Onset",268.006,"12","Sugary",12,75,60,3,"no","up","Left",1,"FS","FL",11,"up",555,1,"Students12"
41,0.375245600938797,0.46173682808876,-58.9571990966797,148.145065307617,47.083683013916,299.993,1642.01,549.005,"Pictures_Onset",584.013,"12","Sugary",12,75,60,3,"no","up","Left",1,"FS","FL",11,"up",555,1,"Students12"
41,0.375828564167023,0.468857139348984,-58.7664680480957,146.344589233398,46.4278984069824,566.003,1975.002,881.997,"Pictures_Onset",917.005,"12","Sugary",12,75,60,3,"no","up","Left",1,"FS","FL",11,"up",555,1,"Students12"
41,0.635869562625885,0.516478180885315,65.7156524658203,134.305938720703,42.0463752746582,366.003,2624,1530.995,"Pictures_Onset",1566.003,"12","Healthy",12,75,60,3,"no","up","Left",1,"FS","FL",11,"up",555,1,"Students12"
42,0.373033344745636,0.489416688680649,-60.0828323364258,141.135345458984,44.5330009460449,150.003,1465.997,183.002,"Pictures_Onset",408,"12","Healthy",12,75,60,4,"no","up","Left",0,"FL","FS",11,"up",700,1,"Students12"
42,0.386000037193298,0.475941210985184,-53.8845100402832,144.545288085938,45.7729377746582,265.997,1949.005,666.01,"Pictures_Onset",891.008,"12","Healthy",12,75,60,4,"no","up","Left",0,"FL","FS",11,"up",700,1,"Students12"
42,0.611233353614807,0.46396666765213,53.8853340148926,147.524993896484,46.8583335876465,151.002,2280.998,998.003,"Pictures_Onset",1223.001,"12","Sugary",12,75,60,4,"no","up","Left",0,"FL","FS",11,"up",700,1,"Students12"
42,0.402151465415955,0.464984863996506,-46.1101531982422,147.320571899414,46.7825775146484,350.003,2497.997,1215.002,"Pictures_Onset",1440,"12","Healthy",12,75,60,4,"no","up","Left",0,"FL","FS",11,"up",700,1,"Students12"
43,0.38677778840065,0.465266644954681,-53.5424461364746,147.228225708008,46.7499961853027,232.998,1339.008,316.006,"Pictures_Onset",281.011,"12","Sugary",12,75,60,1,"no","down","Right",0,"FS","FL",11,"down",491,1,"Students12"
43,0.596833348274231,0.486666619777679,47.0456657409668,141.845672607422,44.7919998168945,150.003,1655.002,632,"Pictures_Onset",597.005,"12","Healthy",12,75,60,1,"no","down","Right",0,"FS","FL",11,"down",491,1,"Students12"
43,0.646212100982666,0.470363646745682,70.6409072875977,145.928787231445,46.2757568359375,167.002,1854.003,831.001,"Pictures_Onset",796.006,"12","Healthy",12,75,60,1,"no","down","Right",0,"FS","FL",11,"down",491,1,"Students12"
43,0.360897481441498,0.437666714191437,-65.9112854003906,154.229721069336,49.2971801757812,200,2104,1080.998,"Pictures_Onset",1046.003,"12","Sugary",12,75,60,1,"no","down","Right",0,"FS","FL",11,"down",491,1,"Students12"
43,0.626378417015076,0.472270309925079,61.1661262512207,145.468017578125,46.109546661377,600,2387.008,1364.006,"Pictures_Onset",1329.011,"12","Healthy",12,75,60,1,"no","down","Right",0,"FS","FL",11,"down",491,1,"Students12"
44,0.380799978971481,0.496377766132355,-56.3813285827637,139.413757324219,43.9064407348633,233.997,1217.997,182.003,"Pictures_Onset",160,"12","Healthy",12,75,60,2,"no","down","Right",1,"FL","FS",11,"down",539,1,"Students12"
44,0.617928564548492,0.505023837089539,57.1199989318848,137.179748535156,43.0909538269043,216,1535.002,499.008,"Pictures_Onset",477.005,"12","Sugary",12,75,60,2,"no","down","Right",1,"FL","FS",11,"down",539,1,"Students12"
44,0.382688850164413,0.488688915967941,-55.4895629882812,141.300003051758,44.5914459228516,483.008,1833.997,798.003,"Pictures_Onset",776,"12","Healthy",12,75,60,2,"no","down","Right",1,"FL","FS",11,"down",539,1,"Students12"
44,0.383730739355087,0.501799166202545,-54.9501686096191,138.005889892578,43.3923416137695,632.999,2350.003,1314.009,"Pictures_Onset",1292.006,"12","Healthy",12,75,60,2,"no","down","Right",1,"FL","FS",11,"down",539,1,"Students12"
45,0.365523815155029,0.495333343744278,-63.6581001281738,139.649505615234,43.990234375,216,1251.994,232.999,"Pictures_Onset",193.997,"12","Sugary",12,75,60,4,"no","up","Left",1,"FS","FL",12,"up",480,1,"Students12"
45,0.364687502384186,0.458083301782608,-64.0429153442383,149.040618896484,47.4089584350586,250.01,1501.99,482.995,"Pictures_Onset",443.993,"12","Sugary",12,75,60,4,"no","up","Left",1,"FS","FL",12,"up",480,1,"Students12"
45,0.603920638561249,0.474428623914719,50.3549156188965,144.913650512695,45.906982421875,331.993,1817.997,799.002,"Pictures_Onset",760,"12","Healthy",12,75,60,4,"no","up","Left",1,"FS","FL",12,"up",480,1,"Students12"
45,0.629452407360077,0.499261856079102,62.5921401977539,138.670257568359,43.6349983215332,216,2184,1165.005,"Pictures_Onset",1126.003,"12","Healthy",12,75,60,4,"no","up","Left",1,"FS","FL",12,"up",480,1,"Students12"
45,0.350174605846405,0.457365036010742,-71.0057144165039,149.25032043457,47.4865074157715,332.006,2566.989,1547.994,"Pictures_Onset",1508.992,"12","Sugary",12,75,60,4,"no","up","Left",1,"FS","FL",12,"up",480,1,"Students12"
46,0.370124995708466,0.489916652441025,-61.4874992370605,140.977493286133,44.4762535095215,116.992,1343.002,149.005,"Pictures_Onset",285.005,"12","Healthy",12,75,60,1,"no","up","Left",0,"FL","FS",12,"up",688,1,"Students12"
46,0.620078444480896,0.468627423048019,58.1464691162109,146.38410949707,46.4423522949219,266.995,1543.002,349.005,"Pictures_Onset",485.005,"12","Sugary",12,75,60,1,"no","up","Left",0,"FL","FS",12,"up",688,1,"Students12"
46,0.630299985408783,0.43939995765686,62.9930000305176,153.830993652344,49.1529998779297,149.005,1842.995,648.998,"Pictures_Onset",784.998,"12","Sugary",12,75,60,1,"no","up","Left",0,"FL","FS",12,"up",688,1,"Students12"
46,0.380555599927902,0.47561115026474,-56.4412994384766,144.639633178711,45.8072242736816,282.995,2058.995,864.998,"Pictures_Onset",1000.998,"12","Healthy",12,75,60,1,"no","up","Left",0,"FL","FS",12,"up",688,1,"Students12"
46,0.383022159337997,0.483911097049713,-55.2211074829102,142.529098510742,45.0391120910645,232.998,2375.002,1181.005,"Pictures_Onset",1317.005,"12","Healthy",12,75,60,1,"no","up","Left",0,"FL","FS",12,"up",688,1,"Students12"
46,0.633824527263641,0.473052591085434,64.7007064819336,145.255416870117,46.0321044921875,301.005,2673.997,1480,"Pictures_Onset",1616,"12","Sugary",12,75,60,1,"no","up","Left",0,"FL","FS",12,"up",688,1,"Students12"
47,0.370675891637802,0.488657414913177,-61.1323165893555,141.344253540039,44.607593536377,281.997,1248.998,216.998,"Pictures_Onset",191.001,"12","Sugary",12,75,60,2,"no","down","Right",0,"FS","FL",12,"down",548,1,"Students12"
47,0.616027772426605,0.504625022411346,56.2181968688965,137.28889465332,43.1323585510254,382.003,1747.994,715.994,"Pictures_Onset",689.997,"12","Healthy",12,75,60,2,"no","down","Right",0,"FS","FL",12,"down",548,1,"Students12"
47,0.598666667938232,0.554166674613953,47.9349975585938,124.836669921875,38.6033325195312,167.002,2162.995,1130.995,"Pictures_Onset",1104.998,"12","Healthy",12,75,60,2,"no","down","Right",0,"FS","FL",12,"down",548,1,"Students12"
47,0.374924212694168,0.477348506450653,-59.1995468139648,144.140151977539,45.6243934631348,166.004,2512.998,1480.998,"Pictures_Onset",1455.001,"12","Sugary",12,75,60,2,"no","down","Right",0,"FS","FL",12,"down",548,1,"Students12"
47,0.577484846115112,0.499242395162582,37.7551536560059,138.657272338867,43.62939453125,166.003,2762.995,1730.995,"Pictures_Onset",1704.998,"12","Healthy",12,75,60,2,"no","down","Right",0,"FS","FL",12,"down",548,1,"Students12"
48,0.371541649103165,0.502291679382324,-60.8145866394043,137.868743896484,43.3420867919922,116.992,1224,200,"Pictures_Onset",166.003,"12","Healthy",12,75,60,3,"no","down","Right",1,"FL","FS",12,"down",502,1,"Students12"
48,0.620921552181244,0.498176455497742,58.6109809875488,138.956069946289,43.7392120361328,266.995,1407.002,383.002,"Pictures_Onset",349.005,"12","Sugary",12,75,60,3,"no","down","Right",1,"FL","FS",12,"down",502,1,"Students12"
48,0.619613885879517,0.499333322048187,57.9696426391602,138.621765136719,43.6170196533203,300.007,1706.995,682.995,"Pictures_Onset",648.998,"12","Sugary",12,75,60,3,"no","down","Right",1,"FL","FS",12,"down",502,1,"Students12"
48,0.622194468975067,0.466027826070786,59.1655578613281,147.022232055664,46.6747245788574,184,2039.002,1015.002,"Pictures_Onset",981.005,"12","Sugary",12,75,60,3,"no","down","Right",1,"FL","FS",12,"down",502,1,"Students12"
48,0.396897435188293,0.510615408420563,-48.7146148681641,135.819747924805,42.5971832275391,200.999,2304.998,1280.998,"Pictures_Onset",1247.001,"12","Healthy",12,75,60,3,"no","down","Right",1,"FL","FS",12,"down",502,1,"Students12"
48,0.61385715007782,0.458476155996323,55.0671424865723,149.00715637207,47.3976211547852,100.006,2588.992,1564.992,"Pictures_Onset",1530.995,"12","Sugary",12,75,60,3,"no","down","Right",1,"FL","FS",12,"down",502,1,"Students12"
48,0.610733330249786,0.478555530309677,53.6486701965332,143.888671875,45.5333366394043,232,2721.997,1697.997,"Pictures_Onset",1664,"12","Sugary",12,75,60,3,"no","down","Right",1,"FL","FS",12,"down",502,1,"Students12"
49,0.373526334762573,0.474508732557297,-59.7996444702148,144.893508911133,45.899299621582,300.006,1216,182.003,"Pictures_Onset",158.003,"12","Sugary",12,75,60,1,"no","up","Left",1,"FS","FL",13,"up",532,1,"Students12"
49,0.634652197360992,0.484434753656387,65.1288452148438,142.397552490234,44.9923210144043,367.001,1599.002,565.005,"Pictures_Onset",541.005,"12","Healthy",12,75,60,1,"no","up","Left",1,"FS","FL",13,"up",532,1,"Students12"
49,0.367666661739349,0.46169051527977,-62.6942825317383,148.139999389648,47.081428527832,216.998,2048,1014.003,"Pictures_Onset",990.003,"12","Sugary",12,75,60,1,"no","up","Left",1,"FS","FL",13,"up",532,1,"Students12"
49,0.651025712490082,0.476512879133224,72.9050064086914,144.413818359375,45.725643157959,416,2348.006,1314.009,"Pictures_Onset",1290.009,"12","Healthy",12,75,60,1,"no","up","Left",1,"FS","FL",13,"up",532,1,"Students12"
49,0.622727274894714,0.464121252298355,59.3845443725586,147.531509399414,46.8596954345703,166.003,2814.003,1780.006,"Pictures_Onset",1756.006,"12","Healthy",12,75,60,1,"no","up","Left",1,"FS","FL",13,"up",532,1,"Students12"
50,0.379708349704742,0.455291658639908,-56.9662475585938,149.723342895508,47.6593742370605,116.006,1447.002,416.999,"Pictures_Onset",389.005,"12","Healthy",12,75,60,2,"no","up","Left",0,"FL","FS",13,"up",460,1,"Students12"
50,0.624000072479248,0.482700020074844,59.9863395690918,142.823669433594,45.1469955444336,148.992,1630.003,600,"Pictures_Onset",572.006,"12","Sugary",12,75,60,2,"no","up","Left",0,"FL","FS",13,"up",460,1,"Students12"
50,0.372392207384109,0.496549040079117,-60.3276443481445,139.340377807617,43.8786315917969,265.996,1863.002,832.999,"Pictures_Onset",805.005,"12","Healthy",12,75,60,2,"no","up","Left",0,"FL","FS",13,"up",460,1,"Students12"
50,0.620470583438873,0.486901968717575,58.3123512268066,141.807846069336,44.7764701843262,266.995,2311.002,1280.999,"Pictures_Onset",1253.005,"12","Sugary",12,75,60,2,"no","up","Left",0,"FL","FS",13,"up",460,1,"Students12"
50,0.364199966192245,0.500833332538605,-64.3025054931641,138.253997802734,43.484504699707,315.993,2661.005,1631.002,"Pictures_Onset",1603.008,"12","Healthy",12,75,60,2,"no","up","Left",0,"FL","FS",13,"up",460,1,"Students12"
51,0.368545442819595,0.528696954250336,-62.2821159362793,131.202438354492,40.9166679382324,166.003,1222.989,200,"Pictures_Onset",164.992,"12","Sugary",12,75,60,3,"no","down","Right",0,"FS","FL",13,"down",622,1,"Students12"
51,0.625962972640991,0.52185183763504,60.9511108398438,132.938888549805,41.5477752685547,133.99,1472,449.011,"Pictures_Onset",414.003,"12","Healthy",12,75,60,3,"no","down","Right",0,"FS","FL",13,"down",622,1,"Students12"
51,0.626999914646149,0.530282020568848,61.4210243225098,130.793838500977,40.7682037353516,200,1638.989,616,"Pictures_Onset",580.992,"12","Healthy",12,75,60,3,"no","down","Right",0,"FS","FL",13,"down",622,1,"Students12"
51,0.368227273225784,0.516727328300476,-62.3452987670898,134.265319824219,42.0321159362793,348.992,1921.997,899.008,"Pictures_Onset",864,"12","Sugary",12,75,60,3,"no","down","Right",0,"FS","FL",13,"down",622,1,"Students12"
51,0.371266663074493,0.523333251476288,-60.9103317260742,132.560668945312,41.4109992980957,149.991,2304.998,1282.009,"Pictures_Onset",1247.001,"12","Sugary",12,75,60,3,"no","down","Right",0,"FS","FL",13,"down",622,1,"Students12"
51,0.604900002479553,0.522266626358032,50.8783340454102,132.81364440918,41.5026664733887,148.992,2537.997,1515.008,"Pictures_Onset",1480,"12","Healthy",12,75,60,3,"no","down","Right",0,"FS","FL",13,"down",622,1,"Students12"
51,0.381377816200256,0.516422212123871,-56.035774230957,134.304000854492,42.0460052490234,232.998,2753.997,1731.008,"Pictures_Onset",1696,"12","Sugary",12,75,60,3,"no","down","Right",0,"FS","FL",13,"down",622,1,"Students12"
52,0.377215683460236,0.492009848356247,-58.0293197631836,140.483825683594,44.2955894470215,265.997,1236.006,216.998,"Pictures_Onset",178.009,"12","Healthy",12,75,60,4,"no","down","Right",1,"FL","FS",13,"down",511,1,"Students12"
52,0.627958297729492,0.481291681528091,61.774585723877,143.217071533203,45.2874984741211,117.005,1668.006,648.998,"Pictures_Onset",610.009,"12","Sugary",12,75,60,4,"no","down","Right",1,"FL","FS",13,"down",511,1,"Students12"
52,0.626149475574493,0.499827653169632,61.0367736816406,138.487579345703,43.567699432373,466.995,1818.01,799.002,"Pictures_Onset",760.013,"12","Sugary",12,75,60,4,"no","down","Right",1,"FL","FS",13,"down",511,1,"Students12"
52,0.354589730501175,0.501615345478058,-68.8638458251953,138.048202514648,43.4092330932617,200,2351.002,1331.994,"Pictures_Onset",1293.005,"12","Healthy",12,75,60,4,"no","down","Right",1,"FL","FS",13,"down",511,1,"Students12"
52,0.354722231626511,0.502305567264557,-68.8108291625977,137.905532836914,43.3572235107422,182.989,2584.013,1565.005,"Pictures_Onset",1526.016,"12","Healthy",12,75,60,4,"no","down","Right",1,"FL","FS",13,"down",511,1,"Students12"
52,0.377444416284561,0.470249980688095,-57.9719429016113,145.999725341797,46.3002777099609,184.013,2800,1780.992,"Pictures_Onset",1742.003,"12","Healthy",12,75,60,4,"no","down","Right",1,"FL","FS",13,"down",511,1,"Students12"
53,0.392862766981125,0.499058783054352,-50.6015701293945,138.725677490234,43.654899597168,267.008,1256.998,232.998,"Pictures_Onset",199.001,"12","Sugary",12,75,60,2,"no","up","Left",1,"FS","FL",14,"up",419,1,"Students12"
53,0.398799955844879,0.524699985980988,-47.6793365478516,132.227325439453,41.2896690368652,150.003,1557.005,533.005,"Pictures_Onset",499.008,"12","Sugary",12,75,60,2,"no","up","Left",1,"FS","FL",14,"up",419,1,"Students12"
53,0.611111223697662,0.499799996614456,53.8566703796387,138.538223266602,43.5866661071777,233.997,1789.005,765.005,"Pictures_Onset",731.008,"12","Healthy",12,75,60,2,"no","up","Left",1,"FS","FL",14,"up",419,1,"Students12"
53,0.611148178577423,0.509703755378723,53.8451881408691,136.029281616211,42.674072265625,282.01,2056,1032,"Pictures_Onset",998.003,"12","Healthy",12,75,60,2,"no","up","Left",1,"FS","FL",14,"up",419,1,"Students12"
53,0.370361119508743,0.503694474697113,-61.2927856445312,137.52473449707,43.2166633605957,183.002,2422.003,1398.003,"Pictures_Onset",1364.006,"12","Sugary",12,75,60,2,"no","up","Left",1,"FS","FL",14,"up",419,1,"Students12"
53,0.624685168266296,0.509796321392059,60.35888671875,135.994613647461,42.6614837646484,283.008,2688,1664,"Pictures_Onset",1630.003,"12","Healthy",12,75,60,2,"no","up","Left",1,"FS","FL",14,"up",419,1,"Students12"
54,0.36474072933197,0.513851881027222,-63.9640693664551,134.971481323242,42.2888870239258,133.005,1225.997,200,"Pictures_Onset",168,"12","Healthy",12,75,60,3,"no","up","Left",0,"FL","FS",14,"up",411,1,"Students12"
54,0.622166633605957,0.529583334922791,59.1795806884766,131.000015258789,40.8425025939941,117.005,1440.998,415.001,"Pictures_Onset",383.001,"12","Sugary",12,75,60,3,"no","up","Left",0,"FL","FS",14,"up",411,1,"Students12"
54,0.61690628528595,0.508416652679443,56.6505241394043,136.367080688477,42.7946853637695,250.01,1890.995,864.998,"Pictures_Onset",832.998,"12","Sugary",12,75,60,3,"no","up","Left",0,"FL","FS",14,"up",411,1,"Students12"
54,0.652799963951111,0.529133379459381,73.6986618041992,131.102996826172,40.8813362121582,150.003,2190.003,1164.006,"Pictures_Onset",1132.006,"12","Sugary",12,75,60,3,"no","up","Left",0,"FL","FS",14,"up",411,1,"Students12"
54,0.616523742675781,0.486428558826447,56.4461936950684,141.898559570312,44.8095207214355,100.007,2522.995,1496.998,"Pictures_Onset",1464.998,"12","Sugary",12,75,60,3,"no","up","Left",0,"FL","FS",14,"up",411,1,"Students12"
54,0.373851895332336,0.485148161649704,-59.7162933349609,142.221466064453,44.9268455505371,283.008,2705.997,1680,"Pictures_Onset",1648,"12","Healthy",12,75,60,3,"no","up","Left",0,"FL","FS",14,"up",411,1,"Students12"
55,0.355119049549103,0.473333328962326,-68.6757125854492,145.179275512695,46.0040473937988,216,1292.992,266.995,"Pictures_Onset",234.995,"12","Sugary",12,75,60,4,"no","down","Right",0,"FS","FL",14,"down",565,1,"Students12"
55,0.608907401561737,0.466259270906448,52.787036895752,146.997009277344,46.6659202575684,282.996,1608.998,583.001,"Pictures_Onset",551.001,"12","Healthy",12,75,60,4,"no","down","Right",0,"FS","FL",14,"down",565,1,"Students12"
55,0.350071430206299,0.480809539556503,-71.0780868530273,143.319046020508,45.3261947631836,216,2074.995,1048.998,"Pictures_Onset",1016.998,"12","Sugary",12,75,60,4,"no","down","Right",0,"FS","FL",14,"down",565,1,"Students12"
55,0.627777636051178,0.470159739255905,61.8415985107422,145.984375,46.296459197998,383.001,2473.997,1448,"Pictures_Onset",1416,"12","Healthy",12,75,60,4,"no","down","Right",0,"FS","FL",14,"down",565,1,"Students12"
56,0.377772688865662,0.467803001403809,-57.7999992370605,146.615921020508,46.526668548584,351.002,1238.003,131.993,"Pictures_Onset",180.006,"12","Healthy",12,75,60,1,"no","down","Right",1,"FL","FS",14,"down",454,1,"Students12"
56,0.632428646087646,0.470438122749329,64.0265731811523,145.947219848633,46.2841033935547,567.002,1654.003,547.993,"Pictures_Onset",596.006,"12","Sugary",12,75,60,1,"no","down","Right",1,"FL","FS",14,"down",454,1,"Students12"
56,0.368000060319901,0.465037018060684,-62.3992500305176,147.288513183594,46.772045135498,282.01,2304,1197.99,"Pictures_Onset",1246.003,"12","Healthy",12,75,60,1,"no","down","Right",1,"FL","FS",14,"down",454,1,"Students12"
56,0.374431371688843,0.448490232229233,-59.3674545288086,151.505279541016,48.3062782287598,266.01,2654.003,1547.993,"Pictures_Onset",1596.006,"12","Healthy",12,75,60,1,"no","down","Right",1,"FL","FS",14,"down",454,1,"Students12"
57,0.624193012714386,0.505263149738312,60.1078987121582,137.131759643555,43.0743865966797,298.995,1470.003,449.997,"Pictures_Onset",412.006,"12","Healthy",12,75,60,3,"no","up","Left",1,"FS","FL",15,"up",546,1,"Students12"
57,0.377155512571335,0.489177763462067,-58.1242179870605,141.195327758789,44.5540008544922,232.998,1885.005,864.999,"Pictures_Onset",827.008,"12","Sugary",12,75,60,3,"no","up","Left",1,"FS","FL",15,"up",546,1,"Students12"
57,0.376777768135071,0.5046666264534,-58.2780609130859,137.25,43.1174964904785,184,2151.002,1130.996,"Pictures_Onset",1093.005,"12","Sugary",12,75,60,3,"no","up","Left",1,"FS","FL",15,"up",546,1,"Students12"
57,0.381480872631073,0.498757213354111,-56.0389976501465,138.766098022461,43.6700439453125,566.003,2368,1347.994,"Pictures_Onset",1310.003,"12","Sugary",12,75,60,3,"no","up","Left",1,"FS","FL",15,"up",546,1,"Students12"
58,0.360129654407501,0.489777773618698,-66.2824096679688,141.022216796875,44.4905586242676,281.997,1232.998,200,"Pictures_Onset",175.001,"12","Healthy",12,75,60,4,"no","up","Left",0,"FL","FS",15,"up",445,1,"Students12"
58,0.634666621685028,0.496458351612091,65.0924987792969,139.349594116211,43.8804130554199,116.006,1715.994,682.996,"Pictures_Onset",657.997,"12","Sugary",12,75,60,4,"no","up","Left",0,"FL","FS",15,"up",445,1,"Students12"
58,0.637466728687286,0.486833333969116,66.5023345947266,141.80632019043,44.7770004272461,149.005,1881.997,848.999,"Pictures_Onset",824,"12","Sugary",12,75,60,4,"no","up","Left",0,"FL","FS",15,"up",445,1,"Students12"
58,0.617200016975403,0.454866647720337,56.7186698913574,149.873321533203,47.7123336791992,151.002,2064,1031.002,"Pictures_Onset",1006.003,"12","Sugary",12,75,60,4,"no","up","Left",0,"FL","FS",15,"up",445,1,"Students12"
58,0.362410217523575,0.470128208398819,-65.1774368286133,145.994110107422,46.3002548217773,199.001,2297.997,1264.999,"Pictures_Onset",1240,"12","Healthy",12,75,60,4,"no","up","Left",0,"FL","FS",15,"up",445,1,"Students12"
58,0.581133365631104,0.486066728830338,39.4586639404297,141.970321655273,44.836669921875,149.991,2830.003,1797.005,"Pictures_Onset",1772.006,"12","Sugary",12,75,60,4,"no","up","Left",0,"FL","FS",15,"up",445,1,"Students12"
59,0.365848511457443,0.462727278470993,-63.5227279663086,147.902114868164,46.992733001709,167.001,1249.997,216.999,"Pictures_Onset",192,"12","Sugary",12,75,60,1,"no","down","Right",0,"FS","FL",15,"down",438,1,"Students12"
59,0.636402189731598,0.47656324505806,65.9133377075195,144.381958007812,45.7128753662109,466.009,1499.994,466.996,"Pictures_Onset",441.997,"12","Healthy",12,75,60,1,"no","down","Right",0,"FS","FL",15,"down",438,1,"Students12"
59,0.370589703321457,0.466410219669342,-61.2384567260742,146.975387573242,46.6576957702637,200,2032,999.002,"Pictures_Onset",974.003,"12","Sugary",12,75,60,1,"no","down","Right",0,"FS","FL",15,"down",438,1,"Students12"
59,0.370925962924957,0.460444390773773,-61.081298828125,148.419815063477,47.1822204589844,132.006,2265.997,1232.999,"Pictures_Onset",1208,"12","Sugary",12,75,60,1,"no","down","Right",0,"FS","FL",15,"down",438,1,"Students12"
59,0.617015838623047,0.47392064332962,56.6714324951172,145.060317993164,45.9600028991699,332.992,2614.003,1581.005,"Pictures_Onset",1556.006,"12","Healthy",12,75,60,1,"no","down","Right",0,"FS","FL",15,"down",438,1,"Students12"
60,0.371847182512283,0.513270914554596,-60.5729103088379,135.0927734375,42.332706451416,384,1225.997,199.002,"Pictures_Onset",168,"12","Healthy",12,75,60,2,"no","down","Right",1,"FL","FS",15,"down",482,1,"Students12"
60,0.634291708469391,0.502347230911255,64.9068069458008,137.885971069336,43.3490295410156,381.991,1726.003,699.008,"Pictures_Onset",668.006,"12","Sugary",12,75,60,2,"no","down","Right",1,"FL","FS",15,"down",482,1,"Students12"
60,0.354437470436096,0.507104098796844,-68.9595794677734,136.681869506836,42.9108352661133,249.996,2191.002,1164.007,"Pictures_Onset",1133.005,"12","Healthy",12,75,60,2,"no","down","Right",1,"FL","FS",15,"down",482,1,"Students12"
60,0.60400003194809,0.513575732707977,50.4972763061523,135.01091003418,42.3039398193359,166.003,2507.994,1480.999,"Pictures_Onset",1449.997,"12","Sugary",12,75,60,2,"no","down","Right",1,"FL","FS",15,"down",482,1,"Students12"
61,0.379380941390991,0.481857150793076,-56.9485702514648,143.019058227539,45.216667175293,100.006,1276.992,248.998,"Pictures_Onset",218.995,"12","Sugary",12,75,60,4,"no","down","Left",1,"FS","FL",16,"down",631,1,"Students12"
61,0.376555562019348,0.488740772008896,-58.3514823913574,141.321105957031,44.5988883972168,133.005,1410.995,383.001,"Pictures_Onset",352.998,"12","Sugary",12,75,60,4,"no","down","Left",1,"FS","FL",16,"down",631,1,"Students12"
61,0.625982403755188,0.483684182167053,60.9789543151855,142.61051940918,45.0691261291504,299.993,1609.997,582.003,"Pictures_Onset",552,"12","Healthy",12,75,60,4,"no","down","Left",1,"FS","FL",16,"down",631,1,"Students12"
61,0.60052078962326,0.458395808935165,48.7218780517578,149.000625610352,47.3947906494141,248,1944,916.006,"Pictures_Onset",886.003,"12","Healthy",12,75,60,4,"no","down","Left",1,"FS","FL",16,"down",631,1,"Students12"
61,0.355911076068878,0.472288876771927,-68.2793350219727,145.449768066406,46.1022300720215,232.998,2275.994,1248,"Pictures_Onset",1217.997,"12","Sugary",12,75,60,4,"no","down","Left",1,"FS","FL",16,"down",631,1,"Students12"
61,0.615069448947906,0.469986081123352,55.7245826721191,146.056533813477,46.3236122131348,381.99,2576,1548.006,"Pictures_Onset",1518.003,"12","Healthy",12,75,60,4,"no","down","Left",1,"FS","FL",16,"down",631,1,"Students12"
62,0.378055572509766,0.478805541992188,-57.6230583190918,143.794723510742,45.5008354187012,184,1227.008,199.002,"Pictures_Onset",169.011,"12","Healthy",12,75,60,1,"no","down","Left",0,"FL","FS",16,"down",443,1,"Students12"
62,0.630091905593872,0.486114919185638,62.9480476379395,141.971481323242,44.8359794616699,465.997,1493.005,464.999,"Pictures_Onset",435.008,"12","Sugary",12,75,60,1,"no","down","Left",0,"FL","FS",16,"down",443,1,"Students12"
62,0.605615377426147,0.455717861652374,51.2176933288574,149.643402099609,47.6291427612305,632.999,2008.998,980.992,"Pictures_Onset",951.001,"12","Sugary",12,75,60,1,"no","down","Left",0,"FL","FS",16,"down",443,1,"Students12"
62,0.607999980449677,0.455124974250793,52.3433303833008,149.853744506836,47.7058334350586,116.992,2675.008,1647.002,"Pictures_Onset",1617.011,"12","Sugary",12,75,60,1,"no","down","Left",0,"FL","FS",16,"down",443,1,"Students12"
62,0.385541647672653,0.463083326816559,-54.0795860290527,147.816253662109,46.962085723877,116.992,2858.01,1830.004,"Pictures_Onset",1800.013,"12","Healthy",12,75,60,1,"no","down","Left",0,"FL","FS",16,"down",443,1,"Students12"
63,0.379520833492279,0.511395812034607,-57.0212516784668,135.593124389648,42.5147933959961,117.005,1320.998,281.996,"Pictures_Onset",263.001,"12","Sugary",12,75,60,2,"no","up","Right",0,"FS","FL",16,"up",499,1,"Students12"
63,0.60569441318512,0.507333338260651,51.2952766418457,136.622497558594,42.8902778625488,183.002,1520.998,481.996,"Pictures_Onset",463.001,"12","Healthy",12,75,60,2,"no","up","Right",0,"FS","FL",16,"up",499,1,"Students12"
63,0.363347262144089,0.491624981164932,-64.6569442749023,140.603759765625,44.3394432067871,182.989,1971.008,932.006,"Pictures_Onset",913.011,"12","Sugary",12,75,60,2,"no","up","Right",0,"FS","FL",16,"up",499,1,"Students12"
63,0.362866699695587,0.51120001077652,-64.9443359375,135.67399597168,42.5443344116211,150.003,2186.995,1147.993,"Pictures_Onset",1128.998,"12","Sugary",12,75,60,2,"no","up","Right",0,"FS","FL",16,"up",499,1,"Students12"
63,0.563411772251129,0.462156891822815,30.9956836700439,148.027038574219,47.0411758422852,265.997,2653.005,1614.003,"Pictures_Onset",1595.008,"12","Healthy",12,75,60,2,"no","up","Right",0,"FS","FL",16,"up",499,1,"Students12"
64,0.381777793169022,0.506185233592987,-55.8992576599121,136.887771606445,42.9848175048828,132.006,1270.989,199.987,"Pictures_Onset",212.992,"12","Healthy",12,75,60,3,"no","up","Right",1,"FL","FS",16,"up",582,1,"Students12"
64,0.62930953502655,0.502547681331635,62.509521484375,137.821426391602,43.3259506225586,216.998,1487.002,416,"Pictures_Onset",429.005,"12","Sugary",12,75,60,3,"no","up","Right",1,"FL","FS",16,"up",582,1,"Students12"
64,0.365019559860229,0.505147039890289,-63.859317779541,137.169509887695,43.0898056030273,266.995,1785.997,714.995,"Pictures_Onset",728,"12","Healthy",12,75,60,3,"no","up","Right",1,"FL","FS",16,"up",582,1,"Students12"
64,0.404014497995377,0.495347768068314,-45.2389869689941,139.608551025391,43.9765243530273,365.005,2202.995,1131.993,"Pictures_Onset",1144.998,"12","Healthy",12,75,60,3,"no","up","Right",1,"FL","FS",16,"up",582,1,"Students12"
64,0.396600008010864,0.503866612911224,-48.7159957885742,137.492324829102,43.2063293457031,150.003,2634.995,1563.993,"Pictures_Onset",1576.998,"12","Healthy",12,75,60,3,"no","up","Right",1,"FL","FS",16,"up",582,1,"Students12"
64,0.399030297994614,0.517848491668701,-47.5881805419922,133.948791503906,41.915153503418,166.003,2818.995,1747.993,"Pictures_Onset",1760.998,"12","Healthy",12,75,60,3,"no","up","Right",1,"FL","FS",16,"up",582,1,"Students12"
65,0.372842133045197,0.481210559606552,-60.1878929138184,143.225631713867,45.2936859130859,300.006,1249.997,216,"Pictures_Onset",192,"12","Sugary",12,75,60,1,"no","down","Left",1,"FS","FL",17,"down",458,1,"Students12"
65,0.640555560588837,0.493288904428482,67.998664855957,140.154647827148,44.1748886108398,232.998,1633.997,600,"Pictures_Onset",576,"12","Healthy",12,75,60,1,"no","down","Left",1,"FS","FL",17,"down",458,1,"Students12"
65,0.640291690826416,0.464645862579346,67.770622253418,147.414810180664,46.8185424804688,250.01,1898.995,864.998,"Pictures_Onset",840.998,"12","Healthy",12,75,60,1,"no","down","Left",1,"FS","FL",17,"down",458,1,"Students12"
65,0.372194439172745,0.457666665315628,-60.4233360290527,149.178039550781,47.4599952697754,184.013,2314.995,1280.998,"Pictures_Onset",1256.998,"12","Sugary",12,75,60,1,"no","down","Left",1,"FS","FL",17,"down",458,1,"Students12"
65,0.367402791976929,0.458486080169678,-62.761531829834,148.947616577148,47.375,383.002,2532.006,1498.009,"Pictures_Onset",1474.009,"12","Sugary",12,75,60,1,"no","down","Left",1,"FS","FL",17,"down",458,1,"Students12"
66,0.414022237062454,0.472466677427292,-40.5111083984375,145.416458129883,46.0897789001465,233.997,1152,32.998,"Pictures_Onset",94.0029999999999,"12","Healthy",12,75,60,2,"no","down","Left",0,"FL","FS",17,"down",493,1,"Students12"
66,0.63836658000946,0.490333259105682,66.9396667480469,140.886993408203,44.4413375854492,149.99,1519.002,400,"Pictures_Onset",461.005,"12","Sugary",12,75,60,2,"no","down","Left",0,"FL","FS",17,"down",493,1,"Students12"
66,0.396000027656555,0.50537496805191,-49.0120849609375,137.140411376953,43.0779190063477,116.992,1901.005,782.003,"Pictures_Onset",843.008,"12","Healthy",12,75,60,2,"no","down","Left",0,"FL","FS",17,"down",493,1,"Students12"
66,0.394433319568634,0.502266705036163,-49.8320007324219,137.868988037109,43.3439979553223,151.001,2049.997,930.995,"Pictures_Onset",992,"12","Healthy",12,75,60,2,"no","down","Left",0,"FL","FS",17,"down",493,1,"Students12"
66,0.381518512964249,0.489037036895752,-56.0081443786621,141.231857299805,44.5655555725098,133.004,2283.994,1164.992,"Pictures_Onset",1225.997,"12","Healthy",12,75,60,2,"no","down","Left",0,"FL","FS",17,"down",493,1,"Students12"
66,0.380222231149673,0.486194461584091,-56.6402778625488,141.989440917969,44.843334197998,183.001,2449.997,1330.995,"Pictures_Onset",1392,"12","Healthy",12,75,60,2,"no","down","Left",0,"FL","FS",17,"down",493,1,"Students12"
66,0.616571485996246,0.471357136964798,56.4730911254883,145.719512939453,46.2000007629395,216,2699.994,1580.992,"Pictures_Onset",1641.997,"12","Sugary",12,75,60,2,"no","down","Left",0,"FL","FS",17,"down",493,1,"Students12"
67,0.453036993741989,0.526333332061768,-21.8092594146729,131.832595825195,41.1451873779297,134.004,1104.998,32.998,"Pictures_Onset",47.001,"12","Sugary",12,75,60,3,"no","up","Right",0,"FS","FL",17,"up",468,1,"Students12"
67,0.631595253944397,0.522190451622009,63.6079750061035,132.85595703125,41.5188064575195,448.998,1471.002,399.002,"Pictures_Onset",413.005,"12","Healthy",12,75,60,3,"no","up","Right",0,"FS","FL",17,"up",468,1,"Students12"
67,0.354750007390976,0.481416672468185,-68.8133316040039,143.158340454102,45.268611907959,183.002,2004.006,932.006,"Pictures_Onset",946.009,"12","Sugary",12,75,60,3,"no","up","Right",0,"FS","FL",17,"up",468,1,"Students12"
67,0.356743603944778,0.49328202009201,-67.8402481079102,140.165374755859,44.1787185668945,200,2220.006,1148.006,"Pictures_Onset",1162.009,"12","Sugary",12,75,60,3,"no","up","Right",0,"FS","FL",17,"up",468,1,"Students12"
67,0.635166585445404,0.510966718196869,65.3556671142578,135.683868408203,42.548999786377,316.992,2486.003,1414.003,"Pictures_Onset",1428.006,"12","Healthy",12,75,60,3,"no","up","Right",0,"FS","FL",17,"up",468,1,"Students12"
68,0.381249994039536,0.470916658639908,-56.1429138183594,145.806671142578,46.2316665649414,115.993,1273.997,249.997,"Pictures_Onset",216,"12","Healthy",12,75,60,4,"no","up","Right",1,"FL","FS",17,"up",814,1,"Students12"
68,0.641460299491882,0.460714340209961,68.3703231811523,148.357299804688,47.1611137390137,333.004,1539.994,515.994,"Pictures_Onset",481.997,"12","Sugary",12,75,60,4,"no","up","Right",1,"FL","FS",17,"up",814,1,"Students12"
68,0.363640993833542,0.468589812517166,-64.548210144043,146.415374755859,46.4530792236328,199.001,1955.994,931.994,"Pictures_Onset",897.997,"12","Healthy",12,75,60,4,"no","up","Right",1,"FL","FS",17,"up",814,1,"Students12"
68,0.367851883172989,0.480740696191788,-62.5022239685059,143.359619140625,45.341480255127,133.005,2188.992,1164.992,"Pictures_Onset",1130.995,"12","Healthy",12,75,60,4,"no","up","Right",1,"FL","FS",17,"up",814,1,"Students12"
68,0.621044397354126,0.459666639566422,58.5475540161133,148.673324584961,47.2764434814453,232.998,2404.992,1380.992,"Pictures_Onset",1346.995,"12","Sugary",12,75,60,4,"no","up","Right",1,"FL","FS",17,"up",814,1,"Students12"
68,0.622899949550629,0.457416623830795,59.4748344421387,149.211975097656,47.4721641540527,314.995,2672,1648,"Pictures_Onset",1614.003,"12","Sugary",12,75,60,4,"no","up","Right",1,"FL","FS",17,"up",814,1,"Students12"
69,0.367708325386047,0.514000058174133,-62.6562538146973,134.94792175293,42.2810363769531,250.01,1216.998,183.001,"Pictures_Onset",159.001,"12","Sugary",12,75,60,2,"no","down","Left",1,"FS","FL",18,"down",442,1,"Students12"
69,0.604318201541901,0.528242409229279,50.6024208068848,131.314697265625,40.9569702148438,350.003,1550.003,516.006,"Pictures_Onset",492.006,"12","Healthy",12,75,60,2,"no","down","Left",1,"FS","FL",18,"down",442,1,"Students12"
69,0.608036994934082,0.531314790248871,52.3659248352051,130.559631347656,40.6827812194824,281.997,1933.005,899.008,"Pictures_Onset",875.008,"12","Healthy",12,75,60,2,"no","down","Left",1,"FS","FL",18,"down",442,1,"Students12"
69,0.375916689634323,0.513949990272522,-58.7175064086914,134.927673339844,42.2711715698242,149.004,2399.002,1365.005,"Pictures_Onset",1341.005,"12","Sugary",12,75,60,2,"no","down","Left",1,"FS","FL",18,"down",442,1,"Students12"
69,0.381342560052872,0.516796350479126,-56.1287956237793,134.243148803711,42.0232391357422,281.997,2582.003,1548.006,"Pictures_Onset",1524.006,"12","Sugary",12,75,60,2,"no","down","Left",1,"FS","FL",18,"down",442,1,"Students12"
70,0.347244381904602,0.513888895511627,-72.3988952636719,134.93000793457,42.2737808227539,232.998,1265.997,232.999,"Pictures_Onset",208,"12","Healthy",12,75,60,3,"no","down","Left",0,"FL","FS",18,"down",474,1,"Students12"
70,0.408749997615814,0.54512494802475,-42.946662902832,127.052925109863,39.4062538146973,116.006,1548.992,515.994,"Pictures_Onset",490.995,"12","Healthy",12,75,60,3,"no","down","Left",0,"FL","FS",18,"down",474,1,"Students12"
70,0.636199951171875,0.49254447221756,65.8682174682617,140.356094360352,44.2485542297363,482.01,1815.987,782.989,"Pictures_Onset",757.99,"12","Sugary",12,75,60,3,"no","down","Left",0,"FL","FS",18,"down",474,1,"Students12"
70,0.618823528289795,0.532823503017426,57.5945129394531,130.17626953125,40.5421562194824,265.997,2330.995,1297.997,"Pictures_Onset",1272.998,"12","Sugary",12,75,60,3,"no","down","Left",0,"FL","FS",18,"down",474,1,"Students12"
70,0.36738595366478,0.538859724998474,-62.7440299987793,128.621734619141,39.9771957397461,300.007,2679.987,1646.989,"Pictures_Onset",1621.99,"12","Healthy",12,75,60,3,"no","down","Left",0,"FL","FS",18,"down",474,1,"Students12"
71,0.377466648817062,0.470899999141693,-57.9516677856445,145.796661376953,46.2286682128906,149.004,1551.002,533.005,"Pictures_Onset",493.005,"12","Sugary",12,75,60,4,"no","up","Right",0,"FS","FL",18,"up",604,1,"Students12"
71,0.610083341598511,0.495770812034607,53.3510437011719,139.517913818359,43.9437561035156,248.998,1784,766.003,"Pictures_Onset",726.003,"12","Healthy",12,75,60,4,"no","up","Right",0,"FS","FL",18,"up",604,1,"Students12"
71,0.367125004529953,0.484013825654984,-62.8804206848145,142.488052368164,45.023193359375,382.003,2117.005,1099.008,"Pictures_Onset",1059.008,"12","Sugary",12,75,60,4,"no","up","Right",0,"FS","FL",18,"up",604,1,"Students12"
71,0.3803651034832,0.454460322856903,-56.5400047302246,149.972702026367,47.7492065429688,333.005,2533.005,1515.008,"Pictures_Onset",1475.008,"12","Sugary",12,75,60,4,"no","up","Right",0,"FS","FL",18,"up",604,1,"Students12"
72,0.409924238920212,0.507681787014008,-42.3983345031738,136.506362915039,42.8468170166016,166.004,1392.998,33.9960000000001,"Pictures_Onset",335.001,"12","Healthy",12,75,60,1,"no","up","Right",1,"FL","FS",18,"up",587,1,"Students12"
72,0.624474406242371,0.469961524009705,60.2176933288574,146.043472290039,46.3182029724121,416,1641.997,282.995,"Pictures_Onset",584,"12","Sugary",12,75,60,1,"no","up","Right",1,"FL","FS",18,"up",587,1,"Students12"
72,0.351075768470764,0.481393992900848,-70.493034362793,143.171646118164,45.2730293273926,166.322333333334,2141.67166666667,815.667666666667,"Pictures_Onset",1116.67266666667,"12","Healthy",12,75,60,1,"no","up","Right",1,"FL","FS",18,"up",587,1,"Students12"
72,0.392749965190887,0.430937469005585,-50.6218757629395,155.942504882812,49.9226989746094,249.997,2656.998,1297.996,"Pictures_Onset",1599.001,"12","Healthy",12,75,60,1,"no","up","Right",1,"FL","FS",18,"up",587,1,"Students12"
73,0.620257198810577,0.532619059085846,58.2578125,130.221328735352,40.5592422485352,566.003,1393.997,365.005,"Pictures_Onset",336,"12","Healthy",12,75,60,3,"no","down","Left",1,"FS","FL",19,"down",559,1,"Students12"
73,0.353238105773926,0.511857092380524,-69.5554733276367,135.478103637695,42.4733352661133,216.999,2042.995,1014.003,"Pictures_Onset",984.998,"12","Sugary",12,75,60,3,"no","down","Left",1,"FS","FL",19,"down",559,1,"Students12"
73,0.398592591285706,0.490740776062012,-47.9111137390137,140.772964477539,44.4018516540527,133.005,2308.992,1280,"Pictures_Onset",1250.995,"12","Sugary",12,75,60,3,"no","down","Left",1,"FS","FL",19,"down",559,1,"Students12"
73,0.609103441238403,0.517195403575897,52.8871269226074,134.096328735352,41.9694175720215,466.01,2509.99,1480.998,"Pictures_Onset",1451.993,"12","Healthy",12,75,60,3,"no","down","Left",1,"FS","FL",19,"down",559,1,"Students12"
74,0.364144951105118,0.492434740066528,-64.2731857299805,140.384780883789,44.2584075927734,366.003,1362.995,116.992,"Pictures_Onset",304.998,"12","Healthy",12,75,60,4,"no","down","Left",0,"FL","FS",19,"down",500,1,"Students12"
74,0.622397422790527,0.491025626659393,59.2437210083008,140.738861083984,44.3862762451172,416.998,1845.005,599.002,"Pictures_Onset",787.008,"12","Sugary",12,75,60,4,"no","down","Left",0,"FL","FS",19,"down",500,1,"Students12"
74,0.362657129764557,0.507190406322479,-65.0330429077148,136.631042480469,42.8919906616211,567.002,2344,1097.997,"Pictures_Onset",1286.003,"12","Healthy",12,75,60,4,"no","down","Left",0,"FL","FS",19,"down",500,1,"Students12"
75,0.388249963521957,0.461520850658417,-52.7881240844727,148.170211791992,47.0914573669434,248.999,1348.006,316.006,"Pictures_Onset",290.009,"12","Sugary",12,75,60,1,"no","up","Right",0,"FS","FL",19,"up",466,1,"Students12"
75,0.622241377830505,0.471942573785782,59.1534423828125,145.552993774414,46.1394271850586,465.997,1680.998,648.998,"Pictures_Onset",623.001,"12","Healthy",12,75,60,1,"no","up","Right",0,"FS","FL",19,"up",466,1,"Students12"
75,0.625710129737854,0.473130434751511,60.814640045166,145.264907836914,46.0347785949707,365.991,2180.006,1148.006,"Pictures_Onset",1122.009,"12","Healthy",12,75,60,1,"no","up","Right",0,"FS","FL",19,"up",466,1,"Students12"
75,0.625106632709503,0.478853315114975,60.5387992858887,143.778137207031,45.4944000244141,398.989,2580.006,1548.006,"Pictures_Onset",1522.009,"12","Healthy",12,75,60,1,"no","up","Right",0,"FS","FL",19,"up",466,1,"Students12"
76,0.626971065998077,0.51668119430542,61.4136161804199,134.293746948242,42.042308807373,366.003,1655.002,632.999,"Pictures_Onset",597.005,"12","Sugary",12,75,60,2,"no","up","Right",1,"FL","FS",19,"up",473,1,"Students12"
76,0.373606085777283,0.504272699356079,-59.8075828552246,137.362731933594,43.1606025695801,166.989,2187.008,1165.005,"Pictures_Onset",1129.011,"12","Healthy",12,75,60,2,"no","up","Right",1,"FL","FS",19,"up",473,1,"Students12"
76,0.376000016927719,0.513625025749207,-58.6766700744629,135.002914428711,42.3012504577637,116.992,2387.008,1365.005,"Pictures_Onset",1329.011,"12","Healthy",12,75,60,2,"no","up","Right",1,"FL","FS",19,"up",473,1,"Students12"
76,0.378555536270142,0.511722266674042,-57.4683303833008,135.500183105469,42.4816665649414,133.671666666667,2536.998,1514.995,"Pictures_Onset",1479.001,"12","Healthy",12,75,60,2,"no","up","Right",1,"FL","FS",19,"up",473,1,"Students12"
76,0.364194422960281,0.526861131191254,-64.2527770996094,131.672225952148,41.0877838134766,183.002,2803.008,1781.005,"Pictures_Onset",1745.011,"12","Healthy",12,75,60,2,"no","up","Right",1,"FL","FS",19,"up",473,1,"Students12"
77,0.373805522918701,0.482138872146606,-59.7180519104004,142.953338623047,45.1916656494141,182.004,1244.006,216.998,"Pictures_Onset",186.009,"12","Sugary",12,75,60,4,"no","down","Left",1,"FS","FL",20,"down",481,1,"Students12"
77,0.620060563087463,0.479515165090561,58.1636390686035,143.615463256836,45.4354553222656,165.005,1510.003,482.995,"Pictures_Onset",452.006,"12","Healthy",12,75,60,4,"no","down","Left",1,"FS","FL",20,"down",481,1,"Students12"
77,0.622899949550629,0.47763329744339,59.4816665649414,144.109649658203,45.6143341064453,150.003,1709.005,681.997,"Pictures_Onset",651.008,"12","Healthy",12,75,60,4,"no","down","Left",1,"FS","FL",20,"down",481,1,"Students12"
77,0.375688910484314,0.48759999871254,-58.8006629943848,141.608215332031,44.7053337097168,233.011,2041.997,1014.989,"Pictures_Onset",984,"12","Sugary",12,75,60,4,"no","down","Left",1,"FS","FL",20,"down",481,1,"Students12"
77,0.621499955654144,0.43233335018158,58.8049964904785,155.558883666992,49.7825012207031,184,2491.008,1464,"Pictures_Onset",1433.011,"12","Healthy",12,75,60,4,"no","down","Left",1,"FS","FL",20,"down",481,1,"Students12"
77,0.369800001382828,0.47191110253334,-61.5642204284668,145.522445678711,46.1295585632324,232.998,2741.005,1713.997,"Pictures_Onset",1683.008,"12","Sugary",12,75,60,4,"no","down","Left",1,"FS","FL",20,"down",481,1,"Students12"
78,0.404454529285431,0.442636370658875,-44.9596977233887,152.912124633789,48.8178825378418,166.003,1297.997,265.997,"Pictures_Onset",240,"12","Healthy",12,75,60,1,"no","down","Left",0,"FL","FS",20,"down",595,1,"Students12"
78,0.644030332565308,0.471757531166077,69.6075744628906,145.573043823242,46.1475715637207,166.003,1614.003,582.003,"Pictures_Onset",556.006,"12","Sugary",12,75,60,1,"no","down","Left",0,"FL","FS",20,"down",595,1,"Students12"
78,0.643365085124969,0.479079395532608,69.2877731323242,143.757919311523,45.4863471984863,331.994,1814.003,782.003,"Pictures_Onset",756.006,"12","Sugary",12,75,60,1,"no","down","Left",0,"FL","FS",20,"down",595,1,"Students12"
78,0.374630957841873,0.490523815155029,-59.34619140625,140.876907348633,44.4383316040039,216.998,2213.005,1181.005,"Pictures_Onset",1155.008,"12","Healthy",12,75,60,1,"no","down","Left",0,"FL","FS",20,"down",595,1,"Students12"
78,0.381976187229156,0.464452356100082,-55.8061904907227,147.449295043945,46.8295211791992,216,2529.997,1497.997,"Pictures_Onset",1472,"12","Healthy",12,75,60,1,"no","down","Left",0,"FL","FS",20,"down",595,1,"Students12"
78,0.639212071895599,0.476121217012405,67.2481842041016,144.499694824219,45.756664276123,165.991,2812.006,1780.006,"Pictures_Onset",1754.009,"12","Sugary",12,75,60,1,"no","down","Left",0,"FL","FS",20,"down",595,1,"Students12"
79,0.628199994564056,0.494222193956375,61.9677772521973,139.921112060547,44.0897750854492,232.998,1511.002,481.997,"Pictures_Onset",453.005,"12","Healthy",12,75,60,2,"no","up","Right",0,"FS","FL",20,"up",516,1,"Students12"
79,0.610479235649109,0.491916656494141,53.5566673278809,140.515625,44.3070831298828,248.998,2193.997,1164.992,"Pictures_Onset",1136,"12","Healthy",12,75,60,2,"no","up","Right",0,"FS","FL",20,"up",516,1,"Students12"
79,0.369229197502136,0.497916638851166,-61.8279151916504,139.027709960938,43.7645797729492,248.999,2510.003,1480.998,"Pictures_Onset",1452.006,"12","Sugary",12,75,60,2,"no","up","Right",0,"FS","FL",20,"up",516,1,"Students12"
79,0.3666110932827,0.50644439458847,-63.1534729003906,136.883483886719,42.98486328125,184,2792,1762.995,"Pictures_Onset",1734.003,"12","Sugary",12,75,60,2,"no","up","Right",0,"FS","FL",20,"up",516,1,"Students12"
80,0.360333353281021,0.509133338928223,-66.1376724243164,136.173004150391,42.7243347167969,150.004,1229.99,199.001,"Pictures_Onset",171.993,"12","Healthy",12,75,60,3,"no","up","Right",1,"FL","FS",20,"up",497,1,"Students12"
80,0.615820527076721,0.522230744361877,56.1223068237305,132.863082885742,41.5207672119141,199.001,1446.989,416,"Pictures_Onset",388.992,"12","Sugary",12,75,60,3,"no","up","Right",1,"FL","FS",20,"up",497,1,"Students12"
80,0.629472970962524,0.534473061561584,62.644832611084,129.775054931641,40.3977432250977,498.995,1729.997,699.008,"Pictures_Onset",672,"12","Sugary",12,75,60,3,"no","up","Right",1,"FL","FS",20,"up",497,1,"Students12"
80,0.612055480480194,0.503458321094513,54.3318061828613,137.586929321289,43.2409706115723,382.989,2312,1281.011,"Pictures_Onset",1254.003,"12","Sugary",12,75,60,3,"no","up","Right",1,"FL","FS",20,"up",497,1,"Students12"
80,0.366076916456223,0.511538445949554,-63.3656387329102,135.537445068359,42.4938430786133,200,2777.997,1747.008,"Pictures_Onset",1720,"12","Healthy",12,75,60,3,"no","up","Right",1,"FL","FS",20,"up",497,1,"Students12"
