"trial_id","sx","sy","px","py","pz","duration","timestamp","trial_onset","label","label_onset","subject_nr.x","AOI_visited","subject_nr.y","fat_craving","sugar_craving","Block","practice","Arrow_Direction","Arrow_Position","Congruence","Left_Picture","Right_Picture","Pair_Number","response","response_time","accuracy","part_ID"
1,0.399074077606201,0.477074027061462,-48.336296081543,144.872589111328,45.8929595947266,133.005,1594.995,565.005,"Pictures_Onset",552.998,"11","Salty",11,30,70,1,"no","up","Left",1,"FF","FL",1,"up",572,1,"Students11"
1,0.610549032688141,0.475353002548218,52.7374534606934,145.287246704102,46.0437240600586,264.999,1794.995,765.005,"Pictures_Onset",752.998,"11","Healthy",11,30,70,1,"no","up","Left",1,"FF","FL",1,"up",572,1,"Students11"
1,0.606366634368896,0.481166660785675,50.6893310546875,143.832000732422,45.5146713256836,150.004,2093.99,1064,"Pictures_Onset",1051.993,"11","Healthy",11,30,70,1,"no","up","Left",1,"FF","FL",1,"up",572,1,"Students11"
1,0.587148129940033,0.478963017463684,41.5375900268555,144.399810791016,45.7211112976074,282.01,2277.99,1248,"Pictures_Onset",1235.993,"11","Healthy",11,30,70,1,"no","up","Left",1,"FF","FL",1,"up",572,1,"Students11"
1,0.440529406070709,0.483372509479523,-28.5713710784912,143.246871948242,45.3007888793945,265.997,2626.995,1597.005,"Pictures_Onset",1584.998,"11","Salty",11,30,70,1,"no","up","Left",1,"FF","FL",1,"up",572,1,"Students11"
2,0.381841242313385,0.49061906337738,-56.5539665222168,141.461898803711,44.6507911682129,332.006,1443.994,416,"Pictures_Onset",401.997,"11","Healthy",11,30,70,2,"no","up","Left",0,"FL","FF",1,"up",404,1,"Students11"
2,0.621386706829071,0.485733330249786,57.8642692565918,142.67985534668,45.094799041748,400,1958.989,930.995,"Pictures_Onset",916.992,"11","Salty",11,30,70,2,"no","up","Left",0,"FL","FF",1,"up",404,1,"Students11"
2,0.367212116718292,0.478757590055466,-63.5718231201172,144.429092407227,45.7295417785645,167.001,2657.997,1630.003,"Pictures_Onset",1616,"11","Healthy",11,30,70,2,"no","up","Left",0,"FL","FF",1,"up",404,1,"Students11"
2,0.383625030517578,0.472541660070419,-55.7870864868164,145.978744506836,46.2945823669434,115.993,2857.997,1830.003,"Pictures_Onset",1816,"11","Healthy",11,30,70,2,"no","up","Left",0,"FL","FF",1,"up",404,1,"Students11"
3,0.427179545164108,0.492871731519699,-34.8894882202148,140.866165161133,44.4346122741699,199.002,1318.003,282.995,"Pictures_Onset",276.006,"11","Salty",11,30,70,3,"no","down","Right",0,"FF","FL",1,"down",419,1,"Students11"
3,0.626551330089569,0.491358935832977,60.3633346557617,141.239227294922,44.5710296630859,415.002,1600.998,565.99,"Pictures_Onset",559.001,"11","Healthy",11,30,70,3,"no","down","Right",0,"FF","FL",1,"down",419,1,"Students11"
3,0.391124993562698,0.482302099466324,-52.1750030517578,143.532806396484,45.4043731689453,516.006,2149.005,1113.997,"Pictures_Onset",1107.008,"11","Salty",11,30,70,3,"no","down","Right",0,"FF","FL",1,"down",419,1,"Students11"
3,0.630708336830139,0.494541645050049,62.3258361816406,140.457504272461,44.2850036621094,116.007,2864.998,1829.99,"Pictures_Onset",1823.001,"11","Healthy",11,30,70,3,"no","down","Right",0,"FF","FL",1,"down",419,1,"Students11"
4,0.375263929367065,0.487208336591721,-59.7311058044434,142.297637939453,44.9551429748535,381.991,1217.011,183.001,"Pictures_Onset",175.014,"11","Healthy",11,30,70,4,"no","down","Right",1,"FL","FF",1,"down",434,1,"Students11"
4,0.641380965709686,0.498404711484909,67.4004821777344,139.499282836914,43.9354782104492,217.997,1665.011,631.001,"Pictures_Onset",623.014,"11","Salty",11,30,70,4,"no","down","Right",1,"FL","FF",1,"down",434,1,"Students11"
4,0.609300017356873,0.502533316612244,52.1186637878418,138.421661376953,43.5459976196289,150.003,1915.008,880.998,"Pictures_Onset",873.011,"11","Salty",11,30,70,4,"no","down","Right",1,"FL","FF",1,"down",434,1,"Students11"
4,0.410166680812836,0.491933286190033,-42.9226684570312,141.121002197266,44.5270004272461,150.004,2132.006,1097.996,"Pictures_Onset",1090.009,"11","Healthy",11,30,70,4,"no","down","Right",1,"FL","FF",1,"down",434,1,"Students11"
4,0.385974377393723,0.498564094305038,-54.5561561584473,139.468200683594,43.926155090332,199.002,2432,1397.99,"Pictures_Onset",1390.003,"11","Healthy",11,30,70,4,"no","down","Right",1,"FL","FF",1,"down",434,1,"Students11"
4,0.589240729808807,0.495962977409363,42.4970359802246,140.09407043457,44.1531524658203,282.995,2697.011,1663.001,"Pictures_Onset",1655.014,"11","Salty",11,30,70,4,"no","down","Right",1,"FL","FF",1,"down",434,1,"Students11"
5,0.384822219610214,0.493333369493484,-55.111328125,140.721542358398,44.381778717041,232.999,1313.011,283.008,"Pictures_Onset",271.014,"11","Salty",11,30,70,2,"no","up","Left",1,"FF","FL",2,"up",515,1,"Students11"
5,0.632315814495087,0.491666704416275,63.1636848449707,141.160171508789,44.541576385498,299.008,1629.005,599.002,"Pictures_Onset",587.008,"11","Healthy",11,30,70,2,"no","up","Left",1,"FF","FL",2,"up",515,1,"Students11"
5,0.613232135772705,0.492892801761627,54.0196304321289,140.861846923828,44.432918548584,914.995,1962.01,932.007,"Pictures_Onset",920.013,"11","Healthy",11,30,70,2,"no","up","Left",1,"FF","FL",2,"up",515,1,"Students11"
6,0.395151495933533,0.480803042650223,-50.1762084960938,143.91227722168,45.5434837341309,350.003,1927.002,897.997,"Pictures_Onset",885.005,"11","Healthy",11,30,70,3,"no","up","Left",0,"FL","FF",2,"up",492,1,"Students11"
6,0.628940522670746,0.487130910158157,61.5097579956055,142.314392089844,44.961555480957,448.998,2343.002,1313.997,"Pictures_Onset",1301.005,"11","Salty",11,30,70,3,"no","up","Left",0,"FL","FF",2,"up",492,1,"Students11"
6,0.561416625976562,0.489916682243347,29.2091674804688,141.647918701172,44.7183303833008,115.994,2860.006,1831.001,"Pictures_Onset",1818.009,"11","Salty",11,30,70,3,"no","up","Left",0,"FL","FF",2,"up",492,1,"Students11"
7,0.403370320796967,0.492740750312805,-46.2301902770996,140.921859741211,44.4538917541504,283.008,1342.989,315.994,"Pictures_Onset",300.992,"11","Salty",11,30,70,4,"no","down","Right",0,"FF","FL",2,"down",462,1,"Students11"
7,0.628999948501587,0.495405733585358,61.556224822998,140.221878051758,44.199275970459,367.001,1691.994,664.999,"Pictures_Onset",649.997,"11","Healthy",11,30,70,4,"no","down","Right",0,"FF","FL",2,"down",462,1,"Students11"
7,0.613288879394531,0.504133284091949,53.9702224731445,138.036666870117,43.4033355712891,232.998,2091.994,1064.999,"Pictures_Onset",1049.997,"11","Healthy",11,30,70,4,"no","down","Right",0,"FF","FL",2,"down",462,1,"Students11"
7,0.641594111919403,0.496043503284454,67.5350723266602,140.090133666992,44.153190612793,366.003,2358.989,1331.994,"Pictures_Onset",1316.992,"11","Healthy",11,30,70,4,"no","down","Right",0,"FF","FL",2,"down",462,1,"Students11"
7,0.647846162319183,0.48500007390976,70.4710311889648,142.885894775391,45.1682052612305,199.002,2757.99,1730.995,"Pictures_Onset",1715.993,"11","Healthy",11,30,70,4,"no","down","Right",0,"FF","FL",2,"down",462,1,"Students11"
8,0.434606075286865,0.48754546046257,-31.3357563018799,142.216369628906,44.9260597229004,166.003,1550.003,515.993,"Pictures_Onset",508.006,"11","Healthy",11,30,70,1,"no","down","Right",1,"FL","FF",2,"down",462,1,"Students11"
8,0.372818171977997,0.493060618638992,-60.9330406188965,140.821228027344,44.4181823730469,165.004,1767.002,732.992,"Pictures_Onset",725.005,"11","Healthy",11,30,70,1,"no","down","Right",1,"FL","FF",2,"down",462,1,"Students11"
8,0.622902035713196,0.486862689256668,58.6223526000977,142.398223876953,44.991569519043,266.01,2016,981.99,"Pictures_Onset",974.003,"11","Salty",11,30,70,1,"no","down","Right",1,"FL","FF",2,"down",462,1,"Students11"
8,0.588895857334137,0.498520821332932,42.3558349609375,139.472091674805,43.9272994995117,249.997,2332.006,1297.996,"Pictures_Onset",1290.009,"11","Salty",11,30,70,1,"no","down","Right",1,"FL","FF",2,"down",462,1,"Students11"
8,0.425583302974701,0.480916649103165,-35.6483345031738,143.928649902344,45.5480003356934,316.007,2664.998,1630.988,"Pictures_Onset",1623.001,"11","Healthy",11,30,70,1,"no","down","Right",1,"FL","FF",2,"down",462,1,"Students11"
9,0.628166675567627,0.479366689920425,61.1439933776855,144.267013549805,45.6709976196289,149.004,1887.002,865.997,"Pictures_Onset",845.005,"11","Healthy",11,30,70,3,"no","up","Left",1,"FF","FL",3,"up",483,1,"Students11"
9,0.605638921260834,0.474416643381119,50.3683319091797,145.525833129883,46.1305541992188,183.001,2103.002,1081.997,"Pictures_Onset",1061.005,"11","Healthy",11,30,70,3,"no","up","Left",1,"FF","FL",3,"up",483,1,"Students11"
9,0.629363656044006,0.454606056213379,61.6942405700684,150.480895996094,47.9324226379395,167.002,2318.003,1296.998,"Pictures_Onset",1276.006,"11","Healthy",11,30,70,3,"no","up","Left",1,"FF","FL",3,"up",483,1,"Students11"
9,0.636121332645416,0.443969696760178,64.9909133911133,153.221237182617,48.930606842041,167.002,2518.003,1496.998,"Pictures_Onset",1476.006,"11","Healthy",11,30,70,3,"no","up","Left",1,"FF","FL",3,"up",483,1,"Students11"
9,0.601562440395355,0.461979150772095,48.4135360717773,148.682083129883,47.2781219482422,248.998,2735.002,1713.997,"Pictures_Onset",1693.005,"11","Healthy",11,30,70,3,"no","up","Left",1,"FF","FL",3,"up",483,1,"Students11"
10,0.378190517425537,0.480833292007446,-58.2847595214844,143.924758911133,45.5471458435059,216.998,1299.994,265.997,"Pictures_Onset",257.997,"11","Healthy",11,30,70,4,"no","up","Left",0,"FL","FF",3,"up",498,1,"Students11"
10,0.411616712808609,0.494349956512451,-42.3446655273438,140.512832641602,44.3048324584961,316.007,1549.99,515.993,"Pictures_Onset",507.993,"11","Healthy",11,30,70,4,"no","up","Left",0,"FL","FF",3,"up",498,1,"Students11"
10,0.626632213592529,0.50433337688446,60.4385070800781,137.990234375,43.3873558044434,467.008,1997.99,963.993,"Pictures_Onset",955.993,"11","Salty",11,30,70,4,"no","up","Left",0,"FL","FF",3,"up",498,1,"Students11"
10,0.626011967658997,0.50254762172699,60.088451385498,138.438461303711,43.550838470459,448.998,2497.997,1464,"Pictures_Onset",1456,"11","Salty",11,30,70,4,"no","up","Left",0,"FL","FF",3,"up",498,1,"Students11"
11,0.579800009727478,0.500999987125397,38.0433311462402,138.792678833008,43.6803359985352,149.005,1322.995,300.006,"Pictures_Onset",280.998,"11","Healthy",11,30,70,1,"no","down","Right",0,"FF","FL",3,"down",482,1,"Students11"
11,0.615602552890778,0.484102547168732,55.101921081543,143.096542358398,45.2452621459961,416.999,1720.998,698.009,"Pictures_Onset",679.001,"11","Healthy",11,30,70,1,"no","down","Right",0,"FF","FL",3,"down",482,1,"Students11"
11,0.608944475650787,0.489444494247437,51.9752769470215,141.766128540039,44.7608337402344,183.002,2170.995,1148.006,"Pictures_Onset",1128.998,"11","Healthy",11,30,70,1,"no","down","Right",0,"FF","FL",3,"down",482,1,"Students11"
11,0.599694430828094,0.504194438457489,47.4947242736816,138.055557250977,43.4113883972168,184,2386.995,1364.006,"Pictures_Onset",1344.998,"11","Healthy",11,30,70,1,"no","down","Right",0,"FF","FL",3,"down",482,1,"Students11"
11,0.580745041370392,0.517901957035065,38.4272575378418,134.546661376953,42.1343116760254,264.998,2603.994,1581.005,"Pictures_Onset",1561.997,"11","Healthy",11,30,70,1,"no","down","Right",0,"FF","FL",3,"down",482,1,"Students11"
12,0.387283384799957,0.483566701412201,-53.9793319702148,143.238357543945,45.2961654663086,317.005,1941.005,914.995,"Pictures_Onset",899.008,"11","Healthy",11,30,70,2,"no","down","Right",1,"FL","FF",3,"down",451,1,"Students11"
12,0.413583368062973,0.48845836520195,-41.4545822143555,141.97541809082,44.8374977111816,117.99,2290.01,1264,"Pictures_Onset",1248.013,"11","Healthy",11,30,70,2,"no","down","Right",1,"FL","FF",3,"down",451,1,"Students11"
12,0.617433369159698,0.477933347225189,56.034839630127,144.637344360352,45.8059997558594,315.993,2474.01,1448,"Pictures_Onset",1432.013,"11","Salty",11,30,70,2,"no","down","Right",1,"FL","FF",3,"down",451,1,"Students11"
12,0.562222242355347,0.490555495023727,29.5933322906494,141.486679077148,44.6596260070801,133.005,2840,1813.99,"Pictures_Onset",1798.003,"11","Salty",11,30,70,2,"no","down","Right",1,"FL","FF",3,"down",451,1,"Students11"
13,0.620031714439392,0.490031689405441,57.2699966430664,141.604766845703,44.7020645141602,332.992,1467.008,432,"Pictures_Onset",425.011,"11","Healthy",11,30,70,4,"no","up","Left",1,"FF","FL",4,"up",606,1,"Students11"
13,0.396576911211014,0.491564095020294,-49.5442314147949,141.211929321289,44.5591011047363,416.998,1866.01,831.002,"Pictures_Onset",824.013,"11","Salty",11,30,70,4,"no","up","Left",1,"FF","FL",4,"up",606,1,"Students11"
13,0.606176495552063,0.493490219116211,50.6780433654785,140.722534179688,44.3823547363281,265.997,2516.006,1480.998,"Pictures_Onset",1474.009,"11","Healthy",11,30,70,4,"no","up","Left",1,"FF","FL",4,"up",606,1,"Students11"
13,0.593181788921356,0.492909073829651,44.422119140625,140.841201782227,44.4239387512207,166.003,2816,1780.992,"Pictures_Onset",1774.003,"11","Healthy",11,30,70,4,"no","up","Left",1,"FF","FL",4,"up",606,1,"Students11"
14,0.394000023603439,0.513638913631439,-50.7833290100098,135.665023803711,42.5411109924316,182.989,1915.008,882.01,"Pictures_Onset",873.011,"11","Healthy",11,30,70,1,"no","up","Left",0,"FL","FF",4,"up",509,1,"Students11"
14,0.637611150741577,0.491981446743011,65.6251831054688,141.122207641602,44.526481628418,281.997,2182.003,1149.005,"Pictures_Onset",1140.006,"11","Salty",11,30,70,1,"no","up","Left",0,"FL","FF",4,"up",509,1,"Students11"
14,0.594972193241119,0.4894999563694,45.297779083252,141.705841064453,44.7400016784668,183.001,2513.997,1480.999,"Pictures_Onset",1472,"11","Salty",11,30,70,1,"no","up","Left",0,"FL","FF",4,"up",509,1,"Students11"
15,0.634022116661072,0.481066644191742,63.9062232971191,143.842681884766,45.5180015563965,232.998,1523.008,499.008,"Pictures_Onset",481.011,"11","Healthy",11,30,70,2,"no","down","Right",0,"FF","FL",4,"down",524,1,"Students11"
15,0.394604206085205,0.49358332157135,-50.4883346557617,140.700424194336,44.3737564086914,248.998,1839.002,815.002,"Pictures_Onset",797.005,"11","Salty",11,30,70,2,"no","down","Right",0,"FF","FL",4,"down",524,1,"Students11"
15,0.409294068813324,0.477843165397644,-43.4343185424805,144.667465209961,45.8166732788086,265.996,2122.01,1098.01,"Pictures_Onset",1080.013,"11","Salty",11,30,70,2,"no","down","Right",0,"FF","FL",4,"down",524,1,"Students11"
15,0.59213787317276,0.4768046438694,43.9336776733398,144.92724609375,45.911491394043,466.995,2454.003,1430.003,"Pictures_Onset",1412.006,"11","Healthy",11,30,70,2,"no","down","Right",0,"FF","FL",4,"down",524,1,"Students11"
16,0.411313742399216,0.486960798501968,-42.4707832336426,142.356079101562,44.9770622253418,266.009,1230.989,199.002,"Pictures_Onset",188.992,"11","Healthy",11,30,70,3,"no","down","Right",1,"FL","FF",4,"down",451,1,"Students11"
16,0.395962953567505,0.495814859867096,-49.7662963867188,140.104446411133,44.1566696166992,133.005,1530.995,499.008,"Pictures_Onset",488.998,"11","Healthy",11,30,70,3,"no","down","Right",1,"FL","FF",4,"down",451,1,"Students11"
16,0.623916685581207,0.494611144065857,59.0662422180176,140.426223754883,44.2734718322754,384,1745.997,714.01,"Pictures_Onset",704,"11","Salty",11,30,70,3,"no","down","Right",1,"FL","FF",4,"down",451,1,"Students11"
16,0.390133321285248,0.500308394432068,-52.5859184265137,139.002395629883,43.7550888061523,648.998,2195.994,1164.007,"Pictures_Onset",1153.997,"11","Healthy",11,30,70,3,"no","down","Right",1,"FL","FF",4,"down",451,1,"Students11"
17,0.616115927696228,0.505971014499664,55.3834800720215,137.577697753906,43.2369613647461,367.002,1524.992,498.995,"Pictures_Onset",482.995,"11","Healthy",11,30,70,1,"no","up","Left",1,"FF","FL",5,"up",588,1,"Students11"
17,0.630722165107727,0.504537045955658,62.3198089599609,137.917419433594,43.3611106872559,283.008,1924.992,898.995,"Pictures_Onset",882.995,"11","Healthy",11,30,70,1,"no","up","Left",1,"FF","FL",5,"up",588,1,"Students11"
17,0.589311063289642,0.494355529546738,42.5688934326172,140.528900146484,44.3111114501953,231.987,2608,1582.003,"Pictures_Onset",1566.003,"11","Healthy",11,30,70,1,"no","up","Left",1,"FF","FL",5,"up",588,1,"Students11"
18,0.379420310258865,0.484246373176575,-57.6949234008789,143.014038085938,45.2163772583008,366.003,1451.994,432.999,"Pictures_Onset",409.997,"11","Healthy",11,30,70,2,"no","up","Left",0,"FL","FF",5,"up",413,1,"Students11"
18,0.360654771327972,0.484476178884506,-66.7483367919922,143.017242431641,45.2176208496094,216.998,2400,1381.005,"Pictures_Onset",1358.003,"11","Healthy",11,30,70,2,"no","up","Left",0,"FL","FF",5,"up",413,1,"Students11"
18,0.39627081155777,0.483041673898697,-49.6229209899902,143.364990234375,45.3435363769531,250.01,2732.992,1713.997,"Pictures_Onset",1690.995,"11","Healthy",11,30,70,2,"no","up","Left",0,"FL","FF",5,"up",413,1,"Students11"
19,0.426194459199905,0.493555545806885,-35.344165802002,140.705017089844,44.375,183.002,1329.011,300.006,"Pictures_Onset",287.014,"11","Salty",11,30,70,3,"no","down","Right",0,"FF","FL",5,"down",411,1,"Students11"
19,0.600351750850677,0.48142597079277,47.8887023925781,143.792221069336,45.4983367919922,282.995,1578.01,549.005,"Pictures_Onset",536.013,"11","Healthy",11,30,70,3,"no","down","Right",0,"FF","FL",5,"down",411,1,"Students11"
19,0.382121205329895,0.501015067100525,-56.3901481628418,138.836807250977,43.6951560974121,350.003,1927.002,897.997,"Pictures_Onset",885.005,"11","Salty",11,30,70,3,"no","down","Right",0,"FF","FL",5,"down",411,1,"Students11"
19,0.605719268321991,0.491438627243042,50.454647064209,141.236404418945,44.5688667297363,615.987,2360.013,1331.008,"Pictures_Onset",1318.016,"11","Healthy",11,30,70,3,"no","down","Right",0,"FF","FL",5,"down",411,1,"Students11"
20,0.386666685342789,0.494062513113022,-54.2714653015137,140.584579467773,44.3308372497559,249.997,1500.992,465.997,"Pictures_Onset",458.995,"11","Healthy",11,30,70,4,"no","down","Right",1,"FL","FF",5,"down",533,1,"Students11"
20,0.588730096817017,0.483190536499023,42.3158760070801,143.309844970703,45.3231735229492,332.992,1816.998,782.003,"Pictures_Onset",775.001,"11","Salty",11,30,70,4,"no","down","Right",1,"FL","FF",5,"down",533,1,"Students11"
20,0.402075737714767,0.485712140798569,-46.8827285766602,142.678939819336,45.09423828125,350.003,2532.992,1497.997,"Pictures_Onset",1490.995,"11","Healthy",11,30,70,4,"no","down","Right",1,"FL","FF",5,"down",533,1,"Students11"
21,0.391652196645737,0.477202951908112,-51.8649253845215,144.834915161133,45.8794174194336,365.991,1324.006,300.006,"Pictures_Onset",282.009,"11","Salty",11,30,70,2,"no","down","Left",1,"FF","FL",6,"down",444,1,"Students11"
21,0.386222213506699,0.478666663169861,-54.4148139953613,144.449630737305,45.739631652832,132.992,1723.008,699.008,"Pictures_Onset",681.011,"11","Salty",11,30,70,2,"no","down","Left",1,"FF","FL",6,"down",444,1,"Students11"
21,0.62217390537262,0.472811579704285,58.25537109375,145.930160522461,46.2778282165527,365.99,1939.008,915.008,"Pictures_Onset",897.011,"11","Healthy",11,30,70,2,"no","down","Left",1,"FF","FL",6,"down",444,1,"Students11"
21,0.636387050151825,0.475462406873703,65.1025848388672,145.251068115234,46.0297889709473,499.993,2338.01,1314.01,"Pictures_Onset",1296.013,"11","Healthy",11,30,70,2,"no","down","Left",1,"FF","FL",6,"down",444,1,"Students11"
21,0.613714277744293,0.472142845392227,54.2747611999512,146.095245361328,46.3385696411133,100.006,2871.002,1847.002,"Pictures_Onset",1829.005,"11","Healthy",11,30,70,2,"no","down","Left",1,"FF","FL",6,"down",444,1,"Students11"
22,0.426454544067383,0.486242413520813,-35.2460594177246,142.573028564453,45.0542411804199,167.001,1378.01,349.005,"Pictures_Onset",336.013,"11","Healthy",11,30,70,3,"no","down","Left",0,"FL","FF",6,"down",405,1,"Students11"
22,0.386727303266525,0.487515091896057,-54.2809104919434,142.226379394531,44.9303016662598,167.002,1595.008,566.003,"Pictures_Onset",553.011,"11","Healthy",11,30,70,3,"no","down","Left",0,"FL","FF",6,"down",405,1,"Students11"
22,0.629322230815887,0.498899966478348,61.7056541442871,139.35400390625,43.882884979248,481.997,1845.005,816,"Pictures_Onset",803.008,"11","Salty",11,30,70,3,"no","down","Left",0,"FL","FF",6,"down",405,1,"Students11"
23,0.393755584955215,0.476577758789062,-50.8135528564453,144.979095458984,45.931999206543,232,1582.003,550.003,"Pictures_Onset",540.006,"11","Salty",11,30,70,4,"no","up","Right",0,"FF","FL",6,"up",438,1,"Students11"
23,0.620282053947449,0.481589674949646,57.3820571899414,143.720779418945,45.4730758666992,200.998,1880,848,"Pictures_Onset",838.003,"11","Healthy",11,30,70,4,"no","up","Right",0,"FF","FL",6,"up",438,1,"Students11"
23,0.615564048290253,0.483205139636993,55.1638374328613,143.32307434082,45.3274383544922,199.001,2113.997,1081.997,"Pictures_Onset",1072,"11","Healthy",11,30,70,4,"no","up","Right",0,"FF","FL",6,"up",438,1,"Students11"
23,0.395043462514877,0.476956576108932,-50.2472457885742,144.877975463867,45.8940582275391,365.005,2397.005,1365.005,"Pictures_Onset",1355.008,"11","Salty",11,30,70,4,"no","up","Right",0,"FF","FL",6,"up",438,1,"Students11"
23,0.591037034988403,0.478074073791504,43.455924987793,144.599258422852,45.7929573059082,133.005,2846.003,1814.003,"Pictures_Onset",1804.006,"11","Healthy",11,30,70,4,"no","up","Right",0,"FF","FL",6,"up",438,1,"Students11"
24,0.619538366794586,0.487487196922302,57.0369262695312,142.234878540039,44.9312782287598,199.001,1227.994,200,"Pictures_Onset",185.997,"11","Salty",11,30,70,1,"no","up","Right",1,"FL","FF",6,"up",475,1,"Students11"
24,0.407294929027557,0.481512874364853,-44.4293556213379,143.742721557617,45.4812812805176,416,1495.002,467.008,"Pictures_Onset",453.005,"11","Healthy",11,30,70,1,"no","up","Right",1,"FL","FF",6,"up",475,1,"Students11"
24,0.388166695833206,0.486366659402847,-53.5380020141602,142.527328491211,45.0386657714844,148.992,1944,916.006,"Pictures_Onset",902.003,"11","Healthy",11,30,70,1,"no","up","Right",1,"FL","FF",6,"up",475,1,"Students11"
24,0.591465055942535,0.50806200504303,43.5579872131348,137.048355102539,43.0444984436035,697.997,2176.998,1149.004,"Pictures_Onset",1135.001,"11","Salty",11,30,70,1,"no","up","Right",1,"FL","FF",6,"up",475,1,"Students11"
25,0.413690507411957,0.488761901855469,-41.3657150268555,141.909759521484,44.814281463623,216,1385.011,349.005,"Pictures_Onset",343.014,"11","Salty",11,30,70,3,"no","down","Left",1,"FF","FL",7,"down",467,1,"Students11"
25,0.381784290075302,0.483215659856796,-56.5656890869141,143.345092773438,45.3370628356934,266.996,1668.006,632,"Pictures_Onset",626.009,"11","Salty",11,30,70,3,"no","down","Left",1,"FF","FL",7,"down",467,1,"Students11"
25,0.637636363506317,0.504060626029968,65.5981750488281,138.066955566406,43.4145469665527,166.003,2018.01,982.004,"Pictures_Onset",976.013,"11","Healthy",11,30,70,3,"no","down","Left",1,"FF","FL",7,"down",467,1,"Students11"
25,0.635904788970947,0.512523829936981,64.8092041015625,135.895553588867,42.6253967285156,332.992,2217.011,1181.005,"Pictures_Onset",1175.014,"11","Healthy",11,30,70,3,"no","down","Left",1,"FF","FL",7,"down",467,1,"Students11"
25,0.58243328332901,0.511550068855286,39.2708358764648,136.162322998047,42.7221603393555,317.004,2599.002,1562.996,"Pictures_Onset",1557.005,"11","Healthy",11,30,70,3,"no","down","Left",1,"FF","FL",7,"down",467,1,"Students11"
26,0.412712186574936,0.502984762191772,-41.8495445251465,138.348495483398,43.5177268981934,350.003,1483.994,382.004,"Pictures_Onset",441.997,"11","Healthy",11,30,70,4,"no","down","Left",0,"FL","FF",7,"down",512,1,"Students11"
26,0.612458407878876,0.50018048286438,53.6484680175781,139.025955200195,43.7637481689453,382.989,2000,898.01,"Pictures_Onset",958.003,"11","Salty",11,30,70,4,"no","down","Left",0,"FL","FF",7,"down",512,1,"Students11"
26,0.408684253692627,0.507964968681335,-43.7064933776855,137.06982421875,43.0540313720703,299.993,2465.997,1364.007,"Pictures_Onset",1424,"11","Healthy",11,30,70,4,"no","down","Left",0,"FL","FF",7,"down",512,1,"Students11"
27,0.632333278656006,0.494843155145645,63.187255859375,140.382553100586,44.257453918457,266.01,1650.995,615.001,"Pictures_Onset",608.998,"11","Healthy",11,30,70,1,"no","up","Right",0,"FF","FL",7,"up",441,1,"Students11"
27,0.614300072193146,0.511533379554749,54.5880012512207,136.187652587891,42.7309989929199,148.992,1951.002,915.008,"Pictures_Onset",909.005,"11","Healthy",11,30,70,1,"no","up","Right",0,"FF","FL",7,"up",441,1,"Students11"
27,0.572716355323792,0.518787205219269,34.6356773376465,134.338623046875,42.0573806762695,766.003,2148.992,1112.998,"Pictures_Onset",1106.995,"11","Healthy",11,30,70,1,"no","up","Right",0,"FF","FL",7,"up",441,1,"Students11"
28,0.384546279907227,0.469111114740372,-55.2674102783203,146.879837036133,46.6230621337891,582.003,2355.994,1330.996,"Pictures_Onset",1313.997,"11","Healthy",11,30,70,2,"no","up","Right",1,"FL","FF",7,"up",426,1,"Students11"
29,0.602766633033752,0.487233340740204,49.0323333740234,142.304992675781,44.9589996337891,150.003,1221.005,200,"Pictures_Onset",179.008,"11","Healthy",11,30,70,4,"no","down","Left",1,"FF","FL",8,"down",414,1,"Students11"
29,0.413666695356369,0.489023834466934,-41.3533325195312,141.863327026367,44.7961845397949,216.999,1454.003,432.998,"Pictures_Onset",412.006,"11","Salty",11,30,70,4,"no","down","Left",1,"FF","FL",8,"down",414,1,"Students11"
30,0.55050003528595,0.54503333568573,24.0036659240723,127.73299407959,39.6533355712891,150.003,1331.994,49.9969999999998,"Pictures_Onset",289.997,"11","Salty",11,30,70,1,"no","down","Left",0,"FL","FF",8,"down",464,1,"Students11"
30,0.581041693687439,0.556958317756653,38.5345840454102,124.71875,38.5570831298828,115.008,1515.994,233.997,"Pictures_Onset",473.997,"11","Salty",11,30,70,1,"no","down","Left",0,"FL","FF",8,"down",464,1,"Students11"
30,0.382499992847443,0.497250020503998,-56.2358360290527,139.809997558594,44.0512542724609,117.005,1697.997,416,"Pictures_Onset",656,"11","Healthy",11,30,70,1,"no","down","Left",0,"FL","FF",8,"down",464,1,"Students11"
30,0.388199985027313,0.496155560016632,-53.5266723632812,140.068008422852,44.1435546875,232,1848.998,567.001,"Pictures_Onset",807.001,"11","Healthy",11,30,70,1,"no","down","Left",0,"FL","FF",8,"down",464,1,"Students11"
30,0.39534917473793,0.498746067285538,-50.068733215332,139.377624511719,43.8923797607422,332.007,2114.995,832.998,"Pictures_Onset",1072.998,"11","Healthy",11,30,70,1,"no","down","Left",0,"FL","FF",8,"down",464,1,"Students11"
30,0.584818184375763,0.507212102413177,40.4278793334961,137.288177490234,43.1303062438965,167.002,2630.003,1348.006,"Pictures_Onset",1588.006,"11","Salty",11,30,70,1,"no","down","Left",0,"FL","FF",8,"down",464,1,"Students11"
30,0.580133318901062,0.506633341312408,38.1563339233398,137.450332641602,43.1909980773926,149.991,2830.003,1548.006,"Pictures_Onset",1788.006,"11","Salty",11,30,70,1,"no","down","Left",0,"FL","FF",8,"down",464,1,"Students11"
31,0.419128209352493,0.485051304101944,-38.758975982666,142.836929321289,45.1523056030273,200,1341.005,315.994,"Pictures_Onset",299.008,"11","Salty",11,30,70,2,"no","up","Right",0,"FF","FL",8,"up",435,1,"Students11"
31,0.623625040054321,0.479750007390976,58.9962501525879,144.190826416016,45.6466674804688,117.004,1607.002,581.991,"Pictures_Onset",565.005,"11","Healthy",11,30,70,2,"no","up","Right",0,"FF","FL",8,"up",435,1,"Students11"
31,0.389333337545395,0.449240744113922,-52.9168510437012,151.875183105469,48.4422225952148,283.008,1790.003,764.992,"Pictures_Onset",748.006,"11","Salty",11,30,70,2,"no","up","Right",0,"FF","FL",8,"up",435,1,"Students11"
31,0.626351833343506,0.477370411157608,60.2568511962891,144.772598266602,45.8559226989746,282.996,2172.006,1146.995,"Pictures_Onset",1130.009,"11","Healthy",11,30,70,2,"no","up","Right",0,"FF","FL",8,"up",435,1,"Students11"
31,0.58092850446701,0.489368975162506,38.5815467834473,141.762634277344,44.7606010437012,448,2506.01,1480.999,"Pictures_Onset",1464.013,"11","Healthy",11,30,70,2,"no","up","Right",0,"FF","FL",8,"up",435,1,"Students11"
32,0.43285721540451,0.499690502882004,-32.2059516906738,139.133804321289,43.8045234680176,216,1472,448.998,"Pictures_Onset",430.003,"11","Healthy",11,30,70,3,"no","up","Right",1,"FL","FF",8,"up",1158,1,"Students11"
32,0.630812525749207,0.49281245470047,62.3670806884766,140.9033203125,44.4472923278809,248.999,1754.995,731.993,"Pictures_Onset",712.998,"11","Salty",11,30,70,3,"no","up","Right",1,"FL","FF",8,"up",1158,1,"Students11"
32,0.5961794257164,0.501358985900879,45.8407669067383,138.694869995117,43.6433334350586,200,2038.003,1015.001,"Pictures_Onset",996.006,"11","Salty",11,30,70,3,"no","up","Right",1,"FL","FF",8,"up",1158,1,"Students11"
32,0.415244460105896,0.477777749300003,-40.6226654052734,144.673538208008,45.8191108703613,482.995,2304,1280.998,"Pictures_Onset",1262.003,"11","Healthy",11,30,70,3,"no","up","Right",1,"FL","FF",8,"up",1158,1,"Students11"
33,0.629777789115906,0.491911143064499,61.8562164306641,141.10221862793,44.5208892822266,233.011,1617.997,581.991,"Pictures_Onset",576,"11","Healthy",11,30,70,1,"no","down","Left",1,"FF","FL",9,"down",513,1,"Students11"
33,0.382433265447617,0.491100043058395,-56.2821006774902,141.334213256836,44.6046676635742,481.996,1935.002,898.996,"Pictures_Onset",893.005,"11","Salty",11,30,70,1,"no","down","Left",1,"FF","FL",9,"down",513,1,"Students11"
33,0.425100028514862,0.491483271121979,-35.9233322143555,141.226318359375,44.5658302307129,316.007,2466.995,1430.989,"Pictures_Onset",1424.998,"11","Salty",11,30,70,1,"no","down","Left",1,"FF","FL",9,"down",513,1,"Students11"
34,0.406583338975906,0.476444453001022,-44.7369422912598,144.996948242188,45.9361114501953,183.002,1499.008,466.01,"Pictures_Onset",457.011,"11","Healthy",11,30,70,2,"no","down","Left",0,"FL","FF",9,"down",470,1,"Students11"
34,0.377315759658813,0.478210538625717,-58.7194747924805,144.562805175781,45.7796478271484,298.995,1715.008,682.01,"Pictures_Onset",673.011,"11","Healthy",11,30,70,2,"no","down","Left",0,"FL","FF",9,"down",470,1,"Students11"
34,0.632029056549072,0.474579721689224,62.9758033752441,145.471466064453,46.1117477416992,365.99,2098.01,1065.012,"Pictures_Onset",1056.013,"11","Salty",11,30,70,2,"no","down","Left",0,"FL","FF",9,"down",470,1,"Students11"
34,0.393375009298325,0.461583316326141,-51.0079154968262,148.748321533203,47.3012504577637,117.005,2680,1647.002,"Pictures_Onset",1638.003,"11","Healthy",11,30,70,2,"no","down","Left",0,"FL","FF",9,"down",470,1,"Students11"
34,0.38796666264534,0.470566660165787,-53.6916618347168,146.521331787109,46.4919967651367,150.003,2830.003,1797.005,"Pictures_Onset",1788.006,"11","Healthy",11,30,70,2,"no","down","Left",0,"FL","FF",9,"down",470,1,"Students11"
35,0.609560668468475,0.483318209648132,52.254695892334,143.275146484375,45.3104591369629,350.004,1976.998,947.993,"Pictures_Onset",935.001,"11","Healthy",11,30,70,3,"no","up","Right",0,"FF","FL",9,"up",501,1,"Students11"
36,0.37521567940712,0.479568600654602,-59.7452964782715,144.245483398438,45.6633338928223,265.997,1754.995,665.997,"Pictures_Onset",712.998,"11","Healthy",11,30,70,4,"no","up","Right",1,"FL","FF",9,"up",435,1,"Students11"
36,0.603151500225067,0.485575795173645,49.1866683959961,142.748626708984,45.1193962097168,350.003,2086.989,997.991,"Pictures_Onset",1044.992,"11","Salty",11,30,70,4,"no","up","Right",1,"FL","FF",9,"up",435,1,"Students11"
36,0.57494443655014,0.496222168207169,35.6997222900391,140.01887512207,44.1255531311035,183.002,2469.99,1380.992,"Pictures_Onset",1427.993,"11","Salty",11,30,70,4,"no","up","Right",1,"FL","FF",9,"up",435,1,"Students11"
37,0.565055549144745,0.500888884067535,30.9486141204834,138.884170532227,43.7108345031738,182.004,1556.006,399.001,"Pictures_Onset",514.009,"11","Healthy",11,30,70,2,"no","down","Left",1,"FF","FL",10,"down",442,1,"Students11"
37,0.579874992370605,0.502541661262512,38.0033340454102,138.423751831055,43.5470809936523,115.994,1772.006,615.001,"Pictures_Onset",730.009,"11","Healthy",11,30,70,2,"no","down","Left",1,"FF","FL",10,"down",442,1,"Students11"
37,0.627615332603455,0.505948662757874,60.8982009887695,137.587677001953,43.2405166625977,200.013,1937.997,780.992,"Pictures_Onset",896,"11","Healthy",11,30,70,2,"no","down","Left",1,"FF","FL",10,"down",442,1,"Students11"
37,0.663745105266571,0.509274482727051,78.182746887207,136.749404907227,42.9347038269043,265.997,2171.008,1014.003,"Pictures_Onset",1129.011,"11","Healthy",11,30,70,2,"no","down","Left",1,"FF","FL",10,"down",442,1,"Students11"
37,0.365019589662552,0.488529443740845,-64.6074523925781,141.972534179688,44.8370552062988,267.008,2520,1362.995,"Pictures_Onset",1478.003,"11","Salty",11,30,70,2,"no","down","Left",1,"FF","FL",10,"down",442,1,"Students11"
37,0.393370389938354,0.465629637241364,-51.0814819335938,147.777770996094,46.9500007629395,133.005,2854.003,1696.998,"Pictures_Onset",1812.006,"11","Salty",11,30,70,2,"no","down","Left",1,"FF","FL",10,"down",442,1,"Students11"
38,0.400095254182816,0.486031770706177,-47.8390464782715,142.601928710938,45.0650787353516,332.007,1226.995,200,"Pictures_Onset",184.998,"11","Healthy",11,30,70,3,"no","down","Left",0,"FL","FF",10,"down",453,1,"Students11"
38,0.391296297311783,0.495074063539505,-52.1066703796387,140.287414550781,44.2255592346191,133.005,1592.998,566.003,"Pictures_Onset",551.001,"11","Healthy",11,30,70,3,"no","down","Left",0,"FL","FF",10,"down",453,1,"Students11"
38,0.629373371601105,0.478826642036438,61.7196006774902,144.407730102539,45.7240104675293,400,1792,765.005,"Pictures_Onset",750.003,"11","Salty",11,30,70,3,"no","down","Left",0,"FL","FF",10,"down",453,1,"Students11"
38,0.41156405210495,0.484820514917374,-42.410514831543,142.898971557617,45.1728248596191,199.001,2791.002,1764.007,"Pictures_Onset",1749.005,"11","Healthy",11,30,70,3,"no","down","Left",0,"FL","FF",10,"down",453,1,"Students11"
39,0.593407392501831,0.511444449424744,44.5466651916504,136.221115112305,42.744815826416,132.992,2226.01,1198.004,"Pictures_Onset",1184.013,"11","Healthy",11,30,70,4,"no","up","Right",0,"FF","FL",10,"up",541,1,"Students11"
39,0.403030306100845,0.49127271771431,-46.4096946716309,141.291198730469,44.5881843566895,166.003,2441.997,1413.991,"Pictures_Onset",1400,"11","Salty",11,30,70,4,"no","up","Right",0,"FF","FL",10,"up",541,1,"Students11"
40,0.402041614055634,0.501937448978424,-46.9014625549316,138.586898803711,43.6037483215332,249.997,1552,515.994,"Pictures_Onset",510.003,"11","Healthy",11,30,70,1,"no","up","Right",1,"FL","FF",10,"up",494,1,"Students11"
40,0.625719249248505,0.482842087745667,59.9770126342773,143.405960083008,45.357723236084,298.996,1868.006,832,"Pictures_Onset",826.009,"11","Salty",11,30,70,1,"no","up","Right",1,"FL","FF",10,"up",494,1,"Students11"
40,0.605133354663849,0.473933309316635,50.1096687316895,145.635665893555,46.1710014343262,148.992,2268.006,1232,"Pictures_Onset",1226.009,"11","Salty",11,30,70,1,"no","up","Right",1,"FL","FF",10,"up",494,1,"Students11"
40,0.407333374023438,0.468583315610886,-44.3994445800781,146.997222900391,46.6658363342285,184.998,2799.002,1762.996,"Pictures_Onset",1757.005,"11","Healthy",11,30,70,1,"no","up","Right",1,"FL","FF",10,"up",494,1,"Students11"
41,0.595190465450287,0.506357192993164,45.3697624206543,137.469528198242,43.196907043457,216,1361.997,333.005,"Pictures_Onset",320,"11","Healthy",11,30,70,3,"no","up","Left",1,"FS","FL",11,"up",610,1,"Students11"
41,0.391333311796188,0.480833351612091,-52.0326652526855,143.894317626953,45.5373382568359,149.005,1644.992,616,"Pictures_Onset",602.995,"11","Sugary",11,30,70,3,"no","up","Left",1,"FS","FL",11,"up",610,1,"Students11"
41,0.602407395839691,0.501333296298981,48.8466644287109,138.746292114258,43.6644439697266,132.992,2343.002,1314.01,"Pictures_Onset",1301.005,"11","Healthy",11,30,70,3,"no","up","Left",1,"FS","FL",11,"up",610,1,"Students11"
41,0.61489999294281,0.517799973487854,54.8136596679688,134.605010986328,42.1550064086914,149.005,2625.997,1597.005,"Pictures_Onset",1584,"11","Healthy",11,30,70,3,"no","up","Left",1,"FS","FL",11,"up",610,1,"Students11"
42,0.390416651964188,0.489562541246414,-52.4191627502441,141.698944091797,44.7381248474121,249.996,1467.994,432,"Pictures_Onset",425.997,"11","Healthy",11,30,70,4,"no","up","Left",0,"FL","FS",11,"up",506,1,"Students11"
42,0.634250044822693,0.501333355903625,63.9437484741211,138.752075195312,43.6633338928223,115.993,2233.997,1198.003,"Pictures_Onset",1192,"11","Sugary",11,30,70,4,"no","up","Left",0,"FL","FS",11,"up",506,1,"Students11"
42,0.600280702114105,0.505543887615204,47.789478302002,137.669631958008,43.269645690918,298.995,2400,1364.006,"Pictures_Onset",1358.003,"11","Sugary",11,30,70,4,"no","up","Left",0,"FL","FS",11,"up",506,1,"Students11"
42,0.42833337187767,0.484481483697891,-34.2970352172852,143.003341674805,45.2118530273438,132.992,2783.002,1747.008,"Pictures_Onset",1741.005,"11","Healthy",11,30,70,4,"no","up","Left",0,"FL","FS",11,"up",506,1,"Students11"
43,0.38471794128418,0.480384558439255,-55.1646118164062,144.039474487305,45.5887184143066,199.002,1496.998,465.996,"Pictures_Onset",455.001,"11","Sugary",11,30,70,1,"no","down","Right",0,"FS","FL",11,"down",432,1,"Students11"
43,0.609986066818237,0.502847254276276,52.4445838928223,138.366668701172,43.5234718322754,384,1778.995,747.993,"Pictures_Onset",736.998,"11","Healthy",11,30,70,1,"no","down","Right",0,"FS","FL",11,"down",432,1,"Students11"
43,0.607463002204895,0.503574073314667,51.2233352661133,138.206680297852,43.4659233093262,281.997,2196.006,1165.004,"Pictures_Onset",1154.009,"11","Healthy",11,30,70,1,"no","down","Right",0,"FS","FL",11,"down",432,1,"Students11"
43,0.42847216129303,0.494041681289673,-34.2934684753418,140.58528137207,44.3318061828613,384,2544,1512.998,"Pictures_Onset",1502.003,"11","Sugary",11,30,70,1,"no","down","Right",0,"FS","FL",11,"down",432,1,"Students11"
44,0.386999994516373,0.487843185663223,-54.1141204833984,142.12077331543,44.8899993896484,267.008,1288,265.997,"Pictures_Onset",246.003,"11","Healthy",11,30,70,2,"no","down","Right",1,"FL","FS",11,"down",445,1,"Students11"
44,0.613233327865601,0.449066698551178,54.0563354492188,151.911346435547,48.4523315429688,149.99,1970.01,948.007,"Pictures_Onset",928.013,"11","Sugary",11,30,70,2,"no","down","Right",1,"FL","FS",11,"down",445,1,"Students11"
44,0.611428558826447,0.447452485561371,53.0869064331055,152.297393798828,48.5938110351562,216,2154.01,1132.007,"Pictures_Onset",1112.013,"11","Sugary",11,30,70,2,"no","down","Right",1,"FL","FS",11,"down",445,1,"Students11"
44,0.39819997549057,0.482499986886978,-48.7730026245117,143.495651245117,45.3910026550293,150.003,2519.002,1496.999,"Pictures_Onset",1477.005,"11","Healthy",11,30,70,2,"no","down","Right",1,"FL","FS",11,"down",445,1,"Students11"
44,0.392862766981125,0.484098106622696,-51.2829360961914,143.076477050781,45.2382431030273,265.997,2702.003,1680,"Pictures_Onset",1660.006,"11","Healthy",11,30,70,2,"no","down","Right",1,"FL","FS",11,"down",445,1,"Students11"
45,0.404393941164017,0.489484876394272,-45.7948455810547,141.711517333984,44.740909576416,164.992,1881.997,848.999,"Pictures_Onset",840,"11","Sugary",11,30,70,4,"no","up","Left",1,"FS","FL",12,"up",374,1,"Students11"
45,0.607499957084656,0.500761866569519,51.2509536743164,138.927383422852,43.7280921936035,216,2113.997,1080.999,"Pictures_Onset",1072,"11","Healthy",11,30,70,4,"no","up","Left",1,"FS","FL",12,"up",374,1,"Students11"
45,0.558606088161469,0.503393888473511,27.9496994018555,138.229385375977,43.4739418029785,166.003,2380.992,1347.994,"Pictures_Onset",1338.995,"11","Healthy",11,30,70,4,"no","up","Left",1,"FS","FL",12,"up",374,1,"Students11"
46,0.391797602176666,0.498750030994415,-51.7840538024902,139.369781494141,43.8892822265625,448.998,1383.002,350.004,"Pictures_Onset",341.005,"11","Healthy",11,30,70,1,"no","up","Left",0,"FL","FS",12,"up",1703,1,"Students11"
46,0.378472298383713,0.505499958992004,-58.2255516052246,137.704177856445,43.2833290100098,182.988,1866.01,833.012,"Pictures_Onset",824.013,"11","Healthy",11,30,70,1,"no","up","Left",0,"FL","FS",12,"up",1703,1,"Students11"
46,0.604809582233429,0.496047616004944,49.9620666503906,140.094924926758,44.1536521911621,332.992,2131.008,1098.01,"Pictures_Onset",1089.011,"11","Sugary",11,30,70,1,"no","up","Left",0,"FL","FS",12,"up",1703,1,"Students11"
46,0.578277766704559,0.495194405317307,37.2577781677246,140.261672973633,44.2130584716797,183.001,2497.997,1464.999,"Pictures_Onset",1456,"11","Sugary",11,30,70,1,"no","up","Left",0,"FL","FS",12,"up",1703,1,"Students11"
47,0.389413297176361,0.473533272743225,-52.9032020568848,145.754257202148,46.2129402160645,399.002,1430.003,399.001,"Pictures_Onset",388.006,"11","Sugary",11,30,70,2,"no","down","Right",0,"FS","FL",12,"down",494,1,"Students11"
47,0.603579699993134,0.477289855480194,49.4150810241699,144.80029296875,45.8653602600098,364.992,1914.01,883.008,"Pictures_Onset",872.013,"11","Healthy",11,30,70,2,"no","down","Right",0,"FS","FL",12,"down",494,1,"Students11"
47,0.614539682865143,0.482127040624619,54.6492118835449,143.561447143555,45.4142837524414,332.007,2312.998,1281.996,"Pictures_Onset",1271.001,"11","Healthy",11,30,70,2,"no","down","Right",0,"FS","FL",12,"down",494,1,"Students11"
47,0.449030309915543,0.459787845611572,-24.484546661377,149.226379394531,47.4775733947754,167.002,2728,1696.998,"Pictures_Onset",1686.003,"11","Sugary",11,30,70,2,"no","down","Right",0,"FS","FL",12,"down",494,1,"Students11"
48,0.452266693115234,0.494433343410492,-22.8756675720215,140.494338989258,44.2990036010742,150.003,1230.989,149.991,"Pictures_Onset",188.992,"11","Healthy",11,30,70,3,"no","down","Right",1,"FL","FS",12,"down",466,1,"Students11"
48,0.40536841750145,0.509403467178345,-45.3429870605469,136.696853637695,42.9180679321289,297.996,1431.002,350.004,"Pictures_Onset",389.005,"11","Healthy",11,30,70,3,"no","down","Right",1,"FL","FS",12,"down",466,1,"Students11"
48,0.398708313703537,0.509249985218048,-48.5362510681152,136.768341064453,42.9441719055176,117.005,1762.995,681.997,"Pictures_Onset",720.998,"11","Healthy",11,30,70,3,"no","down","Right",1,"FL","FS",12,"down",466,1,"Students11"
48,0.627717971801758,0.468256413936615,60.9387130737305,147.104873657227,46.7041015625,199.001,1963.994,882.996,"Pictures_Onset",921.997,"11","Sugary",11,30,70,3,"no","down","Right",1,"FL","FS",12,"down",466,1,"Students11"
48,0.623902857303619,0.472708374261856,59.1399993896484,145.96696472168,46.2912559509277,383.001,2195.994,1114.996,"Pictures_Onset",1153.997,"11","Sugary",11,30,70,3,"no","down","Right",1,"FL","FS",12,"down",466,1,"Students11"
48,0.597579658031464,0.474130421876907,46.4846343994141,145.589584350586,46.1527481079102,366.003,2611.994,1530.996,"Pictures_Onset",1569.997,"11","Sugary",11,30,70,3,"no","down","Right",1,"FL","FS",12,"down",466,1,"Students11"
49,0.397537052631378,0.483870387077332,-49.0420303344727,143.124801635742,45.2572174072266,283.008,1311.002,282.996,"Pictures_Onset",269.005,"11","Sugary",11,30,70,1,"no","up","Left",1,"FS","FL",13,"up",525,1,"Students11"
49,0.639469087123871,0.498771518468857,66.538215637207,139.382415771484,43.8936996459961,880.999,1678.003,649.997,"Pictures_Onset",636.006,"11","Healthy",11,30,70,1,"no","up","Left",1,"FS","FL",13,"up",525,1,"Students11"
50,0.626422226428986,0.462588906288147,60.3136672973633,148.503433227539,47.2126655578613,482.009,1287.002,249.997,"Pictures_Onset",245.005,"11","Sugary",11,30,70,2,"no","up","Left",0,"FL","FS",13,"up",513,1,"Students11"
50,0.630740761756897,0.462370336055756,62.315185546875,148.604446411133,47.248893737793,133.99,1802.01,765.005,"Pictures_Onset",760.013,"11","Sugary",11,30,70,2,"no","up","Left",0,"FL","FS",13,"up",513,1,"Students11"
50,0.62971431016922,0.420523792505264,61.9209518432617,159.10285949707,51.0704765319824,101.005,1968,930.995,"Pictures_Onset",926.003,"11","Sugary",11,30,70,2,"no","up","Left",0,"FL","FS",13,"up",513,1,"Students11"
50,0.38861808180809,0.473965287208557,-53.2968101501465,145.653778076172,46.176944732666,382.989,2152.013,1115.008,"Pictures_Onset",1110.016,"11","Healthy",11,30,70,2,"no","up","Left",0,"FL","FS",13,"up",513,1,"Students11"
50,0.398388892412186,0.469166606664658,-48.6363983154297,146.830001831055,46.6049995422363,182.989,2568.013,1531.008,"Pictures_Onset",1526.016,"11","Healthy",11,30,70,2,"no","up","Left",0,"FL","FS",13,"up",513,1,"Students11"
50,0.38917949795723,0.466923087835312,-53.0517959594727,147.444854736328,46.8284645080566,200.013,2784,1746.995,"Pictures_Onset",1742.003,"11","Healthy",11,30,70,2,"no","up","Left",0,"FL","FS",13,"up",513,1,"Students11"
51,0.628412663936615,0.521317481994629,61.2625312805176,133.707458496094,41.8287315368652,331.994,1739.008,650.01,"Pictures_Onset",697.011,"11","Healthy",11,30,70,3,"no","down","Right",0,"FS","FL",13,"down",627,1,"Students11"
51,0.594433307647705,0.502499997615814,45.0400009155273,138.43733215332,43.5496635437012,149.991,2121.011,1032.013,"Pictures_Onset",1079.014,"11","Healthy",11,30,70,3,"no","down","Right",0,"FS","FL",13,"down",627,1,"Students11"
51,0.558142840862274,0.487773805856705,27.6844043731689,142.158584594727,44.9045219421387,449.012,2320.998,1232,"Pictures_Onset",1279.001,"11","Healthy",11,30,70,3,"no","down","Right",0,"FS","FL",13,"down",627,1,"Students11"
52,0.396785736083984,0.488595247268677,-49.3952369689941,141.955230712891,44.8309516906738,216,1332.006,216,"Pictures_Onset",290.009,"11","Healthy",11,30,70,4,"no","down","Right",1,"FL","FS",13,"down",1151,1,"Students11"
52,0.62391996383667,0.483520090579987,59.1147956848145,143.218795776367,45.289867401123,399.001,1631.002,514.996,"Pictures_Onset",589.005,"11","Sugary",11,30,70,4,"no","down","Right",1,"FL","FS",13,"down",1151,1,"Students11"
52,0.606875061988831,0.495208323001862,51.0408325195312,140.324157714844,44.2370796203613,115.008,2064.998,948.992,"Pictures_Onset",1023.001,"11","Sugary",11,30,70,4,"no","down","Right",1,"FL","FS",13,"down",1151,1,"Students11"
52,0.401913613080978,0.469728469848633,-46.971981048584,146.703582763672,46.5593795776367,432,2264,1147.994,"Pictures_Onset",1222.003,"11","Healthy",11,30,70,4,"no","down","Right",1,"FL","FS",13,"down",1151,1,"Students11"
52,0.599589705467224,0.478076905012131,47.5,144.632827758789,45.8046112060547,199.987,2779.008,1663.002,"Pictures_Onset",1737.011,"11","Sugary",11,30,70,4,"no","down","Right",1,"FL","FS",13,"down",1151,1,"Students11"
53,0.428122758865356,0.49845615029335,-34.4070205688477,139.4794921875,43.9291229248047,299.994,1508.006,481.996,"Pictures_Onset",466.009,"11","Sugary",11,30,70,2,"no","up","Left",1,"FS","FL",14,"up",1701,1,"Students11"
53,0.621333301067352,0.477319121360779,57.8953170776367,144.789169311523,45.8621292114258,765.005,2041.997,1015.987,"Pictures_Onset",1000,"11","Healthy",11,30,70,2,"no","up","Left",1,"FS","FL",14,"up",1701,1,"Students11"
53,0.580142915248871,0.476095229387283,38.2385749816895,145.094757080078,45.9728584289551,100.007,2872.998,1846.988,"Pictures_Onset",1831.001,"11","Healthy",11,30,70,2,"no","up","Left",1,"FS","FL",14,"up",1701,1,"Students11"
54,0.405102550983429,0.487384617328644,-45.4571762084961,142.254867553711,44.9410247802734,199.002,1397.99,365.99,"Pictures_Onset",355.993,"11","Healthy",11,30,70,3,"no","up","Left",0,"FL","FS",14,"up",473,1,"Students11"
54,0.631588280200958,0.496784329414368,62.7484359741211,139.904327392578,44.0843124389648,265.997,1680.998,648.998,"Pictures_Onset",639.001,"11","Sugary",11,30,70,3,"no","up","Left",0,"FL","FS",14,"up",473,1,"Students11"
54,0.600363612174988,0.497439414262772,47.8290977478027,139.717880249023,44.0166702270508,349.005,1996.992,964.992,"Pictures_Onset",954.995,"11","Sugary",11,30,70,3,"no","up","Left",0,"FL","FS",14,"up",473,1,"Students11"
54,0.630538403987885,0.468999922275543,62.2720565795898,146.891540527344,46.6256446838379,200,2395.994,1363.994,"Pictures_Onset",1353.997,"11","Sugary",11,30,70,3,"no","up","Left",0,"FL","FS",14,"up",473,1,"Students11"
54,0.393157958984375,0.46482452750206,-51.1610488891602,147.946853637695,47.011402130127,300.006,2678.989,1646.989,"Pictures_Onset",1636.992,"11","Healthy",11,30,70,3,"no","up","Left",0,"FL","FS",14,"up",473,1,"Students11"
55,0.390148103237152,0.498703688383102,-52.6214790344238,139.381134033203,43.8933334350586,281.997,1549.005,517.005,"Pictures_Onset",507.008,"11","Sugary",11,30,70,4,"no","down","Right",0,"FS","FL",14,"down",435,1,"Students11"
55,0.403384566307068,0.514897465705872,-46.2753829956055,135.327178955078,42.4179496765137,200,1864.998,832.998,"Pictures_Onset",823.001,"11","Sugary",11,30,70,4,"no","down","Right",0,"FS","FL",14,"down",435,1,"Students11"
55,0.636128127574921,0.501076936721802,64.9458999633789,138.850769042969,43.7010307312012,199.002,2214.003,1182.003,"Pictures_Onset",1172.006,"11","Healthy",11,30,70,4,"no","down","Right",0,"FS","FL",14,"down",435,1,"Students11"
55,0.62223607301712,0.4846111536026,58.2713928222656,142.96403503418,45.1977806091309,383.001,2447.002,1415.002,"Pictures_Onset",1405.005,"11","Healthy",11,30,70,4,"no","down","Right",0,"FS","FL",14,"down",435,1,"Students11"
56,0.3894102871418,0.475564152002335,-52.9007720947266,145.212295532227,46.017692565918,200,1705.997,681.997,"Pictures_Onset",664,"11","Healthy",11,30,70,1,"no","down","Right",1,"FL","FS",14,"down",470,1,"Students11"
56,0.630666673183441,0.488111078739166,62.2651824951172,142.041488647461,44.8611106872559,134.003,1989.005,965.005,"Pictures_Onset",947.008,"11","Sugary",11,30,70,1,"no","down","Right",1,"FL","FS",14,"down",470,1,"Students11"
56,0.626787900924683,0.493666678667068,60.431812286377,140.662887573242,44.3603019714355,348.992,2156.006,1132.006,"Pictures_Onset",1114.009,"11","Sugary",11,30,70,1,"no","down","Right",1,"FL","FS",14,"down",470,1,"Students11"
57,0.388883292675018,0.485966682434082,-53.1785049438477,142.612152099609,45.0691604614258,316.006,1257.997,232,"Pictures_Onset",216,"11","Sugary",11,30,70,3,"no","up","Left",1,"FS","FL",15,"up",453,1,"Students11"
57,0.616068959236145,0.494425266981125,55.3216094970703,140.484481811523,44.2955169677734,465.011,1657.997,632,"Pictures_Onset",616,"11","Healthy",11,30,70,3,"no","up","Left",1,"FS","FL",15,"up",453,1,"Students11"
57,0.548541605472565,0.503541648387909,23.0525016784668,138.187911987305,43.4587516784668,117.004,2655.002,1629.005,"Pictures_Onset",1613.005,"11","Healthy",11,30,70,3,"no","up","Left",1,"FS","FL",15,"up",453,1,"Students11"
57,0.431444436311722,0.497851848602295,-32.8662948608398,139.621856689453,43.9811096191406,133.005,2856,1830.003,"Pictures_Onset",1814.003,"11","Sugary",11,30,70,3,"no","up","Left",1,"FS","FL",15,"up",453,1,"Students11"
58,0.398177713155746,0.502333343029022,-48.8082275390625,138.498886108398,43.5737838745117,232.998,1508.992,482.995,"Pictures_Onset",466.995,"11","Healthy",11,30,70,4,"no","up","Left",0,"FL","FS",15,"up",468,1,"Students11"
59,0.593388915061951,0.496277719736099,44.4897193908691,140.014984130859,44.1247253417969,183.001,1669.005,648.999,"Pictures_Onset",627.008,"11","Healthy",11,30,70,1,"no","down","Right",0,"FS","FL",15,"down",428,1,"Students11"
59,0.625343024730682,0.502754867076874,59.8005867004395,138.385177612305,43.5312805175781,267.008,1902.003,881.997,"Pictures_Onset",860.006,"11","Healthy",11,30,70,1,"no","down","Right",0,"FS","FL",15,"down",428,1,"Students11"
59,0.394754379987717,0.486771941184998,-50.3475456237793,142.416488647461,44.9996528625488,298.995,2235.008,1215.002,"Pictures_Onset",1193.011,"11","Sugary",11,30,70,1,"no","down","Right",0,"FS","FL",15,"down",428,1,"Students11"
59,0.563449263572693,0.495942085981369,30.1959419250488,140.093765258789,44.152027130127,365.99,2618.01,1598.004,"Pictures_Onset",1576.013,"11","Healthy",11,30,70,1,"no","down","Right",0,"FS","FL",15,"down",428,1,"Students11"
60,0.62111109495163,0.471888870000839,57.7202758789062,146.186111450195,46.3708305358887,181.991,1297.011,267.008,"Pictures_Onset",255.014,"11","Sugary",11,30,70,2,"no","down","Right",1,"FL","FS",15,"down",476,1,"Students11"
60,0.620777726173401,0.479305595159531,57.6019439697266,144.314712524414,45.6891632080078,182.989,1513.011,483.008,"Pictures_Onset",471.014,"11","Sugary",11,30,70,2,"no","down","Right",1,"FL","FS",15,"down",476,1,"Students11"
60,0.393809497356415,0.498047649860382,-50.8219032287598,139.555252075195,43.9580955505371,216,1762.01,732.007,"Pictures_Onset",720.013,"11","Healthy",11,30,70,2,"no","down","Right",1,"FL","FS",15,"down",476,1,"Students11"
60,0.391616195440292,0.492343425750732,-51.9117126464844,141.010818481445,44.4866676330566,531.994,2012.006,982.003,"Pictures_Onset",970.009,"11","Healthy",11,30,70,2,"no","down","Right",1,"FL","FS",15,"down",476,1,"Students11"
60,0.625166654586792,0.474681824445724,59.7043952941895,145.475921630859,46.1116714477539,350.003,2627.008,1597.005,"Pictures_Onset",1585.011,"11","Sugary",11,30,70,2,"no","down","Right",1,"FL","FS",15,"down",476,1,"Students11"
61,0.624527752399445,0.485833317041397,59.3655586242676,142.633605957031,45.0780601501465,184,1511.002,481.997,"Pictures_Onset",469.005,"11","Healthy",11,30,70,4,"no","down","Left",1,"FS","FL",16,"down",356,1,"Students11"
62,0.392901957035065,0.485823631286621,-51.227840423584,142.691970825195,45.0980415344238,265.997,1281.011,249.011,"Pictures_Onset",239.014,"11","Healthy",11,30,70,1,"no","down","Left",0,"FL","FS",16,"down",526,1,"Students11"
62,0.611518442630768,0.489123523235321,53.2281455993652,141.816925048828,44.7799987792969,432.999,1614.003,582.003,"Pictures_Onset",572.006,"11","Sugary",11,30,70,1,"no","down","Left",0,"FL","FS",16,"down",526,1,"Students11"
62,0.608799934387207,0.497700035572052,51.8815002441406,139.692169189453,44.0066680908203,316.006,2080,1048,"Pictures_Onset",1038.003,"11","Sugary",11,30,70,1,"no","down","Left",0,"FL","FS",16,"down",526,1,"Students11"
62,0.422541707754135,0.487552046775818,-37.1362571716309,142.215942382812,44.9253158569336,517.005,2462.003,1430.003,"Pictures_Onset",1420.006,"11","Healthy",11,30,70,1,"no","down","Left",0,"FL","FS",16,"down",526,1,"Students11"
63,0.437833309173584,0.484249979257584,-29.8341655731201,142.991394042969,45.2083320617676,183.001,2258.01,1231.002,"Pictures_Onset",1216.013,"11","Sugary",11,30,70,2,"no","up","Right",0,"FS","FL",16,"up",606,1,"Students11"
63,0.601633369922638,0.467766672372818,48.4866638183594,147.207000732422,46.7410049438477,149.99,2507.008,1480,"Pictures_Onset",1465.011,"11","Healthy",11,30,70,2,"no","up","Right",0,"FS","FL",16,"up",606,1,"Students11"
63,0.59894871711731,0.476333349943161,47.1876907348633,145.049224853516,45.956413269043,200,2691.008,1664,"Pictures_Onset",1649.011,"11","Healthy",11,30,70,2,"no","up","Right",0,"FS","FL",16,"up",606,1,"Students11"
64,0.397410243749619,0.493999987840652,-49.1564140319824,140.595901489258,44.3356399536133,199.002,1419.008,399.002,"Pictures_Onset",377.011,"11","Healthy",11,30,70,3,"no","up","Right",1,"FL","FS",16,"up",437,1,"Students11"
64,0.610549926757812,0.489550024271011,52.7106704711914,141.698669433594,44.7366638183594,316.007,1702.003,681.997,"Pictures_Onset",660.006,"11","Sugary",11,30,70,3,"no","up","Right",1,"FL","FS",16,"up",437,1,"Students11"
64,0.597121179103851,0.469090849161148,46.3284873962402,146.882431030273,46.6245460510254,165.99,2418.01,1398.004,"Pictures_Onset",1376.013,"11","Sugary",11,30,70,3,"no","up","Right",1,"FL","FS",16,"up",437,1,"Students11"
64,0.603583335876465,0.48199999332428,49.4216690063477,143.582489013672,45.4212493896484,116.992,2617.011,1597.005,"Pictures_Onset",1575.014,"11","Sugary",11,30,70,3,"no","up","Right",1,"FL","FS",16,"up",437,1,"Students11"
64,0.606261849403381,0.495880931615829,50.6652412414551,140.103805541992,44.1566696166992,216.998,2767.002,1746.996,"Pictures_Onset",1725.005,"11","Sugary",11,30,70,3,"no","up","Right",1,"FL","FS",16,"up",437,1,"Students11"
65,0.364142835140228,0.482714295387268,-65.0230102539062,143.453506469727,45.3761901855469,334.003,1811.994,780.992,"Pictures_Onset",769.997,"11","Sugary",11,30,70,1,"no","down","Left",1,"FS","FL",17,"down",530,1,"Students11"
65,0.609071373939514,0.494190454483032,52.0066719055176,140.571197509766,44.3266639709473,216,2212.992,1181.99,"Pictures_Onset",1170.995,"11","Healthy",11,30,70,1,"no","down","Left",1,"FS","FL",17,"down",530,1,"Students11"
65,0.648649990558624,0.503749966621399,70.9358367919922,138.125823974609,43.4365005493164,316.007,2594.995,1563.993,"Pictures_Onset",1552.998,"11","Healthy",11,30,70,1,"no","down","Left",1,"FS","FL",17,"down",530,1,"Students11"
66,0.621599972248077,0.466933310031891,58.0151138305664,147.447326660156,46.8284454345703,232,1715.008,682.995,"Pictures_Onset",673.011,"11","Sugary",11,30,70,2,"no","down","Left",0,"FL","FS",17,"down",444,1,"Students11"
66,0.385958403348923,0.478361040353775,-54.6040306091309,144.520416259766,45.7643089294434,383.002,2014.003,981.99,"Pictures_Onset",972.006,"11","Healthy",11,30,70,2,"no","down","Left",0,"FL","FS",17,"down",444,1,"Students11"
66,0.372424215078354,0.489454537630081,-61.093936920166,141.735763549805,44.7518196105957,167.002,2430.003,1397.99,"Pictures_Onset",1388.006,"11","Healthy",11,30,70,2,"no","down","Left",0,"FL","FS",17,"down",444,1,"Students11"
66,0.334214270114899,0.513880968093872,-79.2814254760742,135.571884155273,42.507381439209,216.999,2662.003,1629.99,"Pictures_Onset",1620.006,"11","Healthy",11,30,70,2,"no","down","Left",0,"FL","FS",17,"down",444,1,"Students11"
67,0.430407404899597,0.495333313941956,-33.4177780151367,140.255554199219,44.2122230529785,132.992,1216.998,183.001,"Pictures_Onset",175.001,"11","Sugary",11,30,70,3,"no","up","Right",0,"FS","FL",17,"up",564,1,"Students11"
67,0.388583302497864,0.489291608333588,-53.377082824707,141.777297973633,44.765625,249.997,1400,366.003,"Pictures_Onset",358.003,"11","Sugary",11,30,70,3,"no","up","Right",0,"FS","FL",17,"up",564,1,"Students11"
67,0.547051191329956,0.519410252571106,22.4084644317627,134.189239501953,42.0033340454102,200,2780.992,1746.995,"Pictures_Onset",1738.995,"11","Healthy",11,30,70,3,"no","up","Right",0,"FS","FL",17,"up",564,1,"Students11"
68,0.426777780056,0.492259234189987,-35.0729637145996,141.052581787109,44.5014839172363,133.005,1245.005,216,"Pictures_Onset",203.008,"11","Healthy",11,30,70,4,"no","up","Right",1,"FL","FS",17,"up",428,1,"Students11"
68,0.610638916492462,0.483638852834702,52.7386169433594,143.233871459961,45.2952766418457,184,2110.003,1080.998,"Pictures_Onset",1068.006,"11","Sugary",11,30,70,4,"no","up","Right",1,"FL","FS",17,"up",428,1,"Students11"
68,0.565848469734192,0.551393926143646,31.3027229309082,126.100006103516,39.0587921142578,166.003,2360,1330.995,"Pictures_Onset",1318.003,"11","Sugary",11,30,70,4,"no","up","Right",1,"FL","FS",17,"up",428,1,"Students11"
68,0.642583310604095,0.49549999833107,68.0650024414062,140.195556640625,44.1905555725098,183.002,2792,1762.995,"Pictures_Onset",1750.003,"11","Sugary",11,30,70,4,"no","up","Right",1,"FL","FS",17,"up",428,1,"Students11"
69,0.61281818151474,0.482818156480789,53.7978782653809,143.406967163086,45.3584861755371,168,1223.002,199.002,"Pictures_Onset",181.005,"11","Healthy",11,30,70,2,"no","down","Left",1,"FS","FL",18,"down",459,1,"Students11"
69,0.385736793279648,0.485193014144897,-54.7431640625,142.800521850586,45.1391258239746,300.006,1623.002,599.002,"Pictures_Onset",581.005,"11","Sugary",11,30,70,2,"no","down","Left",1,"FS","FL",18,"down",459,1,"Students11"
69,0.597177803516388,0.508163034915924,46.3170356750488,137.009124755859,43.0312652587891,730.995,2107.008,1083.008,"Pictures_Onset",1065.011,"11","Healthy",11,30,70,2,"no","down","Left",1,"FS","FL",18,"down",459,1,"Students11"
70,0.392621219158173,0.487697005271912,-51.4318199157715,142.193023681641,44.9181785583496,350.003,1238.989,216,"Pictures_Onset",196.992,"11","Healthy",11,30,70,3,"no","down","Left",0,"FL","FS",18,"down",443,1,"Students11"
70,0.632913053035736,0.504231810569763,63.4001426696777,138.022735595703,43.3991317749023,366.003,1655.987,632.998,"Pictures_Onset",613.99,"11","Sugary",11,30,70,3,"no","down","Left",0,"FL","FS",18,"down",443,1,"Students11"
70,0.608666718006134,0.495311051607132,51.8493232727051,140.265548706055,44.2157821655273,233.011,2054.989,1032,"Pictures_Onset",1012.992,"11","Sugary",11,30,70,3,"no","down","Left",0,"FL","FS",18,"down",443,1,"Students11"
70,0.430375039577484,0.487041652202606,-33.3162498474121,142.31916809082,44.9624977111816,115.994,2354.995,1332.006,"Pictures_Onset",1312.998,"11","Healthy",11,30,70,3,"no","down","Left",0,"FL","FS",18,"down",443,1,"Students11"
70,0.382045447826385,0.492757529020309,-56.5362167358398,140.931533813477,44.4587898254395,350.003,2519.987,1496.998,"Pictures_Onset",1477.99,"11","Healthy",11,30,70,3,"no","down","Left",0,"FL","FS",18,"down",443,1,"Students11"
71,0.386000007390976,0.494230777025223,-54.5712852478027,140.515121459961,44.3071823120117,200,1314.995,284.006,"Pictures_Onset",272.998,"11","Sugary",11,30,70,4,"no","up","Right",0,"FS","FL",18,"up",439,1,"Students11"
71,0.59751284122467,0.506538510322571,46.4887161254883,137.429473876953,43.1820487976074,200,1580.992,550.003,"Pictures_Onset",538.995,"11","Healthy",11,30,70,4,"no","up","Right",0,"FS","FL",18,"up",439,1,"Students11"
71,0.595238089561462,0.51242858171463,45.3642845153809,136.003814697266,42.6623840332031,100.007,1813.99,783.001,"Pictures_Onset",771.993,"11","Healthy",11,30,70,4,"no","up","Right",0,"FS","FL",18,"up",439,1,"Students11"
71,0.602503657341003,0.511592507362366,48.8971138000488,136.159103393555,42.7206687927246,733.005,2162.995,1132.006,"Pictures_Onset",1120.998,"11","Healthy",11,30,70,4,"no","up","Right",0,"FS","FL",18,"up",439,1,"Students11"
72,0.419999986886978,0.492491275072098,-38.3591270446777,140.989105224609,44.4785995483398,298.995,1301.005,267.008,"Pictures_Onset",259.008,"11","Healthy",11,30,70,1,"no","up","Right",1,"FL","FS",18,"up",423,1,"Students11"
72,0.613210499286652,0.4991754591465,53.962287902832,139.289993286133,43.8610534667969,300.007,1682.995,648.998,"Pictures_Onset",640.998,"11","Sugary",11,30,70,1,"no","up","Right",1,"FL","FS",18,"up",423,1,"Students11"
72,0.579922258853912,0.501088857650757,38.0552215576172,138.798233032227,43.6812171936035,482.995,2016,982.003,"Pictures_Onset",974.003,"11","Sugary",11,30,70,1,"no","up","Right",1,"FL","FS",18,"up",423,1,"Students11"
72,0.560928523540497,0.496309518814087,29.0776214599609,140.044525146484,44.1352348327637,216,2532.006,1498.009,"Pictures_Onset",1490.009,"11","Sugary",11,30,70,1,"no","up","Right",1,"FL","FS",18,"up",423,1,"Students11"
72,0.559512853622437,0.49905127286911,28.3210258483887,139.30615234375,43.866153717041,199.002,2782.003,1748.006,"Pictures_Onset",1740.006,"11","Sugary",11,30,70,1,"no","up","Right",1,"FL","FS",18,"up",423,1,"Students11"
73,0.397372514009476,0.483725488185883,-49.095100402832,143.157073974609,45.2680397033691,265.997,1232.998,200,"Pictures_Onset",191.001,"11","Sugary",11,30,70,3,"no","down","Left",1,"FS","FL",19,"down",434,1,"Students11"
73,0.625088751316071,0.493760317564011,59.6665687561035,140.650146484375,44.3556747436523,1047.987,1566.003,533.005,"Pictures_Onset",524.006,"11","Healthy",11,30,70,3,"no","down","Left",1,"FS","FL",19,"down",434,1,"Students11"
73,0.604041635990143,0.493208348751068,49.6387519836426,140.755828857422,44.3954162597656,116.992,2647.002,1614.004,"Pictures_Onset",1605.005,"11","Healthy",11,30,70,3,"no","down","Left",1,"FS","FL",19,"down",434,1,"Students11"
73,0.385814815759659,0.484333366155624,-54.669261932373,143.017395019531,45.2177772521973,133.99,2847.002,1814.004,"Pictures_Onset",1805.005,"11","Sugary",11,30,70,3,"no","down","Left",1,"FS","FL",19,"down",434,1,"Students11"
74,0.54927271604538,0.509696960449219,23.4066696166992,136.60969543457,42.8857574462891,165.99,1537.997,516.007,"Pictures_Onset",496,"11","Sugary",11,30,70,4,"no","down","Left",0,"FL","FS",19,"down",402,1,"Students11"
74,0.373397886753082,0.502462387084961,-60.6183891296387,138.470977783203,43.5627937316895,498.995,1770.995,749.005,"Pictures_Onset",728.998,"11","Healthy",11,30,70,4,"no","down","Left",0,"FL","FS",19,"down",402,1,"Students11"
74,0.611882388591766,0.497470587491989,53.3207855224609,139.711761474609,44.0133361816406,266.996,2352.998,1331.008,"Pictures_Onset",1311.001,"11","Sugary",11,30,70,4,"no","down","Left",0,"FL","FS",19,"down",402,1,"Students11"
74,0.643650710582733,0.490428566932678,68.4985733032227,141.510330200195,44.668571472168,333.005,2652.992,1631.002,"Pictures_Onset",1610.995,"11","Sugary",11,30,70,4,"no","down","Left",0,"FL","FS",19,"down",402,1,"Students11"
75,0.389111131429672,0.490777760744095,-53.0740737915039,141.40185546875,44.629264831543,133.005,1282.995,199.001,"Pictures_Onset",240.998,"11","Sugary",11,30,70,1,"no","up","Right",0,"FS","FL",19,"up",520,1,"Students11"
75,0.633787870407104,0.499636352062225,63.767578125,139.148788452148,43.8084869384766,166.003,1616,532.006,"Pictures_Onset",574.003,"11","Healthy",11,30,70,1,"no","up","Right",0,"FS","FL",19,"up",520,1,"Students11"
75,0.62176924943924,0.507769227027893,58.0810279846191,137.100250244141,43.0623092651367,200,1815.002,731.008,"Pictures_Onset",773.005,"11","Healthy",11,30,70,1,"no","up","Right",0,"FS","FL",19,"up",520,1,"Students11"
75,0.411725461483002,0.47186279296875,-42.2733345031738,146.187240600586,46.370979309082,265.997,2398.003,1314.009,"Pictures_Onset",1356.006,"11","Sugary",11,30,70,1,"no","up","Right",0,"FS","FL",19,"up",520,1,"Students11"
76,0.392175436019897,0.485701769590378,-51.5784187316895,142.704208374023,45.1036796569824,299.008,1430.989,400,"Pictures_Onset",388.992,"11","Healthy",11,30,70,2,"no","up","Right",1,"FL","FS",19,"up",453,1,"Students11"
76,0.416678220033646,0.478563249111176,-39.9296531677246,144.463668823242,45.7426414489746,466.995,1762.995,732.006,"Pictures_Onset",720.998,"11","Healthy",11,30,70,2,"no","up","Right",1,"FL","FS",19,"up",453,1,"Students11"
76,0.616966664791107,0.483399957418442,55.8429985046387,143.287673950195,45.3153343200684,148.992,2329.997,1299.008,"Pictures_Onset",1288,"11","Sugary",11,30,70,2,"no","up","Right",1,"FL","FS",19,"up",453,1,"Students11"
76,0.615206897258759,0.483747124671936,54.9127616882324,143.193557739258,45.2811546325684,465.997,2512,1481.011,"Pictures_Onset",1470.003,"11","Sugary",11,30,70,2,"no","up","Right",1,"FL","FS",19,"up",453,1,"Students11"
77,0.615208327770233,0.501833379268646,54.9123878479004,138.61457824707,43.6141700744629,514.995,1623.002,600,"Pictures_Onset",581.005,"11","Healthy",11,30,70,4,"no","down","Left",1,"FS","FL",20,"down",407,1,"Students11"
77,0.662433326244354,0.514600038528442,77.4349975585938,135.394332885742,42.4426651000977,148.992,2172.006,1149.004,"Pictures_Onset",1130.009,"11","Healthy",11,30,70,4,"no","down","Left",1,"FS","FL",20,"down",407,1,"Students11"
77,0.664074063301086,0.514777839183807,78.304443359375,135.356658935547,42.428150177002,134.003,2353.997,1330.995,"Pictures_Onset",1312,"11","Healthy",11,30,70,4,"no","down","Left",1,"FS","FL",20,"down",407,1,"Students11"
77,0.673238098621368,0.513333320617676,82.6271438598633,135.715240478516,42.5604782104492,100.007,2520.998,1497.996,"Pictures_Onset",1479.001,"11","Healthy",11,30,70,4,"no","down","Left",1,"FS","FL",20,"down",407,1,"Students11"
77,0.629794955253601,0.4393590092659,61.9543533325195,154.367950439453,49.3487167358398,200,2671.002,1648,"Pictures_Onset",1629.005,"11","Healthy",11,30,70,4,"no","down","Left",1,"FS","FL",20,"down",407,1,"Students11"
78,0.625899910926819,0.489600032567978,60.0590019226074,141.672668457031,44.7293319702148,150.003,1477.005,448.999,"Pictures_Onset",435.008,"11","Sugary",11,30,70,1,"no","down","Left",0,"FL","FS",20,"down",529,1,"Students11"
78,0.38616669178009,0.505205810070038,-54.5230407714844,137.761459350586,43.3047027587891,549.005,1693.005,664.999,"Pictures_Onset",651.008,"11","Healthy",11,30,70,1,"no","down","Left",0,"FL","FS",20,"down",529,1,"Students11"
78,0.599904716014862,0.488571405410767,47.5914306640625,141.959274291992,44.831428527832,216.998,2309.005,1280.999,"Pictures_Onset",1267.008,"11","Sugary",11,30,70,1,"no","down","Left",0,"FL","FS",20,"down",529,1,"Students11"
78,0.413770854473114,0.499312490224838,-41.2593765258789,139.271865844727,43.8539581298828,249.997,2725.005,1696.999,"Pictures_Onset",1683.008,"11","Healthy",11,30,70,1,"no","down","Left",0,"FL","FS",20,"down",529,1,"Students11"
79,0.609106659889221,0.476133316755295,52.0112075805664,145.086791992188,45.9700050354004,399.001,1319.002,283.008,"Pictures_Onset",277.005,"11","Healthy",11,30,70,2,"no","up","Right",0,"FS","FL",20,"up",394,1,"Students11"
79,0.393638879060745,0.487777799367905,-50.9052772521973,142.151382446289,44.9025001525879,183.002,1784.998,749.004,"Pictures_Onset",743.001,"11","Sugary",11,30,70,2,"no","up","Right",0,"FS","FL",20,"up",394,1,"Students11"
79,0.385022222995758,0.508111119270325,-55.0331153869629,137.027557373047,43.0382232666016,232.999,2000.998,965.004,"Pictures_Onset",959.001,"11","Sugary",11,30,70,2,"no","up","Right",0,"FS","FL",20,"up",394,1,"Students11"
79,0.371523827314377,0.512476205825806,-61.3880958557129,135.951904296875,42.6466674804688,100.007,2266.995,1231.001,"Pictures_Onset",1224.998,"11","Sugary",11,30,70,2,"no","up","Right",0,"FS","FL",20,"up",394,1,"Students11"
79,0.638686239719391,0.467568635940552,66.1407928466797,147.265090942383,46.7635231018066,265.997,2449.997,1414.003,"Pictures_Onset",1408,"11","Healthy",11,30,70,2,"no","up","Right",0,"FS","FL",20,"up",394,1,"Students11"
79,0.627488851547241,0.475466668605804,60.836669921875,145.263763427734,46.03466796875,233.012,2749.99,1713.996,"Pictures_Onset",1707.993,"11","Healthy",11,30,70,2,"no","up","Right",0,"FS","FL",20,"up",394,1,"Students11"
80,0.615458369255066,0.462583363056183,55.122917175293,148.522506713867,47.220832824707,117.005,2005.99,915.993,"Pictures_Onset",963.993,"11","Sugary",11,30,70,3,"no","up","Right",1,"FL","FS",20,"up",450,1,"Students11"
80,0.633062422275543,0.517812430858612,63.4400024414062,134.595825195312,42.1514587402344,248.998,2172.992,1082.995,"Pictures_Onset",1130.995,"11","Sugary",11,30,70,3,"no","up","Right",1,"FL","FS",20,"up",450,1,"Students11"
80,0.628958344459534,0.528958320617676,61.587085723877,131.721252441406,41.1058311462402,117.005,2454.989,1364.992,"Pictures_Onset",1412.992,"11","Sugary",11,30,70,3,"no","up","Right",1,"FL","FS",20,"up",450,1,"Students11"
80,0.377388924360275,0.476194471120834,-58.6683387756348,145.066665649414,45.9630546569824,183.002,2637.99,1547.993,"Pictures_Onset",1595.993,"11","Healthy",11,30,70,3,"no","up","Right",1,"FL","FS",20,"up",450,1,"Students11"
80,0.378407418727875,0.482814788818359,-58.1677780151367,143.35888671875,45.3422241210938,133.005,2853.99,1763.993,"Pictures_Onset",1811.993,"11","Healthy",11,30,70,3,"no","up","Right",1,"FL","FS",20,"up",450,1,"Students11"
