"trial_id","sx","sy","px","py","pz","duration","timestamp","trial_onset","label","label_onset","subject_nr.x","AOI_visited","subject_nr.y","fat_craving","sugar_craving","Block","practice","Arrow_Direction","Arrow_Position","Congruence","Left_Picture","Right_Picture","Pair_Number","response","response_time","accuracy","part_ID"
1,0.3877272605896,0.486939400434494,-55.1151504516602,142.206680297852,44.9233322143555,167.001,1247.002,216.999,"Pictures_Onset",197.005,"07","Salty",7,60,90,1,"no","up","Left",1,"FF","FL",1,"up",715,1,"Students07"
1,0.387791663408279,0.488916665315628,-55.1249961853027,141.73583984375,44.7533302307129,117.004,1447.002,416.999,"Pictures_Onset",397.005,"07","Salty",7,60,90,1,"no","up","Left",1,"FF","FL",1,"up",715,1,"Students07"
1,0.397589713335037,0.481743544340134,-50.3323020935059,143.530502319336,45.4033355712891,200,1597.005,567.002,"Pictures_Onset",547.008,"07","Salty",7,60,90,1,"no","up","Left",1,"FF","FL",1,"up",715,1,"Students07"
1,0.59995836019516,0.502916634082794,46.0579147338867,138.205001831055,43.4666633605957,116.006,1863.002,832.999,"Pictures_Onset",813.005,"07","Healthy",7,60,90,1,"no","up","Left",1,"FF","FL",1,"up",715,1,"Students07"
1,0.622333347797394,0.523444473743439,56.7474975585938,133.013885498047,41.5752754211426,182.003,2063.002,1032.999,"Pictures_Onset",1013.005,"07","Healthy",7,60,90,1,"no","up","Left",1,"FF","FL",1,"up",715,1,"Students07"
1,0.665144979953766,0.458956509828568,77.1204376220703,149.286666870117,47.4992713928223,367.001,2295.002,1264.999,"Pictures_Onset",1245.005,"07","Healthy",7,60,90,1,"no","up","Left",1,"FF","FL",1,"up",715,1,"Students07"
1,0.66351854801178,0.503629624843597,76.3537063598633,138.035186767578,43.4037017822266,133.004,2695.002,1664.999,"Pictures_Onset",1645.005,"07","Healthy",7,60,90,1,"no","up","Left",1,"FF","FL",1,"up",715,1,"Students07"
1,0.663250029087067,0.508291661739349,76.2425003051758,136.864166259766,42.9787483215332,115.008,2862.003,1832,"Pictures_Onset",1812.006,"07","Healthy",7,60,90,1,"no","up","Left",1,"FF","FL",1,"up",715,1,"Students07"
2,0.364333301782608,0.502641022205353,-66.1912841796875,138.254119873047,43.4848709106445,200,1247.002,216,"Pictures_Onset",197.005,"07","Healthy",7,60,90,2,"no","up","Left",0,"FL","FF",1,"up",579,1,"Students07"
2,0.626349151134491,0.505793690681458,58.6303291320801,137.476348876953,43.199047088623,332.006,1529.997,498.995,"Pictures_Onset",480,"07","Salty",7,60,90,2,"no","up","Left",0,"FL","FF",1,"up",579,1,"Students07"
2,0.644642889499664,0.490428626537323,67.3752288818359,141.348098754883,44.6092834472656,216.998,1895.002,864,"Pictures_Onset",845.005,"07","Salty",7,60,90,2,"no","up","Left",0,"FL","FF",1,"up",579,1,"Students07"
2,0.623291671276093,0.499395847320557,57.1841697692871,139.075408935547,43.7818717956543,247.987,2146.01,1115.008,"Pictures_Onset",1096.013,"07","Salty",7,60,90,2,"no","up","Left",0,"FL","FF",1,"up",579,1,"Students07"
2,0.382733315229416,0.49202224612236,-57.4679985046387,140.95866394043,44.4680023193359,232.998,2578.01,1547.008,"Pictures_Onset",1528.013,"07","Healthy",7,60,90,2,"no","up","Left",0,"FL","FF",1,"up",579,1,"Students07"
3,0.388555556535721,0.514666676521301,-54.7969398498535,135.233047485352,42.3849983215332,184,1285.005,249.997,"Pictures_Onset",235.008,"07","Salty",7,60,90,3,"no","down","Right",0,"FF","FL",1,"down",723,1,"Students07"
3,0.613979160785675,0.502833366394043,52.7566604614258,138.208740234375,43.4675025939941,248.998,1669.005,633.997,"Pictures_Onset",619.008,"07","Healthy",7,60,90,3,"no","down","Right",0,"FF","FL",1,"down",723,1,"Students07"
3,0.624577701091766,0.519133329391479,57.8235549926758,134.148223876953,41.9879989624023,232.998,1951.002,915.994,"Pictures_Onset",901.005,"07","Healthy",7,60,90,3,"no","down","Right",0,"FF","FL",1,"down",723,1,"Students07"
3,0.624666571617126,0.474958330392838,57.8822860717773,145.239593505859,46.0266647338867,250.01,2232.998,1197.99,"Pictures_Onset",1183.001,"07","Healthy",7,60,90,3,"no","down","Right",0,"FF","FL",1,"down",723,1,"Students07"
3,0.617456078529358,0.483631581068039,54.4261360168457,143.073501586914,45.2380676269531,298.995,2517.005,1481.997,"Pictures_Onset",1467.008,"07","Healthy",7,60,90,3,"no","down","Right",0,"FF","FL",1,"down",723,1,"Students07"
3,0.601370394229889,0.521037042140961,46.7066688537598,133.673324584961,41.8174095153809,133.005,2849.997,1814.989,"Pictures_Onset",1800,"07","Healthy",7,60,90,3,"no","down","Right",0,"FF","FL",1,"down",723,1,"Students07"
4,0.365023851394653,0.484380960464478,-65.8657150268555,142.891189575195,45.170711517334,215.002,1314.995,284.006,"Pictures_Onset",264.998,"07","Healthy",7,60,90,4,"no","down","Right",1,"FL","FF",1,"down",682,1,"Students07"
4,0.393124997615814,0.494500041007996,-52.557918548584,140.354583740234,44.2483329772949,117.004,1579.994,549.005,"Pictures_Onset",529.997,"07","Healthy",7,60,90,4,"no","down","Right",1,"FL","FF",1,"down",682,1,"Students07"
4,0.633070170879364,0.495806992053986,61.9487686157227,139.991928100586,44.1163215637207,298.995,1779.994,749.005,"Pictures_Onset",729.997,"07","Salty",7,60,90,4,"no","down","Right",1,"FL","FF",1,"down",682,1,"Students07"
4,0.647541642189026,0.473020821809769,68.7164611816406,145.737503051758,46.2077102661133,249.997,2112.998,1082.009,"Pictures_Onset",1063.001,"07","Salty",7,60,90,4,"no","down","Right",1,"FL","FF",1,"down",682,1,"Students07"
4,0.611600041389465,0.495866656303406,51.5739936828613,139.970672607422,44.1093330383301,232.999,2461.99,1431.001,"Pictures_Onset",1411.993,"07","Salty",7,60,90,4,"no","down","Right",1,"FL","FF",1,"down",682,1,"Students07"
4,0.666619002819061,0.472142845392227,77.8919067382812,146.021896362305,46.3109512329102,100.007,2743.987,1712.998,"Pictures_Onset",1693.99,"07","Salty",7,60,90,4,"no","down","Right",1,"FL","FF",1,"down",682,1,"Students07"
5,0.630041658878326,0.49974998831749,60.4349975585938,138.99853515625,43.7535400390625,249.997,1248.998,150.003,"Pictures_Onset",199.001,"07","Healthy",7,60,90,2,"no","up","Left",1,"FF","FL",2,"up",639,1,"Students07"
5,0.618666768074036,0.49695235490799,54.9868965148926,139.708465576172,44.0117835998535,449.997,1530.995,432,"Pictures_Onset",480.998,"07","Healthy",7,60,90,2,"no","up","Left",1,"FF","FL",2,"up",639,1,"Students07"
5,0.613527774810791,0.49297222495079,52.5458335876465,140.704452514648,44.375560760498,181.99,2015.002,916.007,"Pictures_Onset",965.005,"07","Healthy",7,60,90,2,"no","up","Left",1,"FF","FL",2,"up",639,1,"Students07"
5,0.382155537605286,0.498911112546921,-57.7644500732422,139.209564208984,43.8302230834961,233.997,2280,1181.005,"Pictures_Onset",1230.003,"07","Salty",7,60,90,2,"no","up","Left",1,"FF","FL",2,"up",639,1,"Students07"
5,0.378846168518066,0.499923080205917,-59.3007659912109,138.950775146484,43.736930847168,199.002,2546.995,1448,"Pictures_Onset",1496.998,"07","Salty",7,60,90,2,"no","up","Left",1,"FF","FL",2,"up",639,1,"Students07"
5,0.417037069797516,0.500999987125397,-41.1070365905762,138.680740356445,43.6388893127441,132.006,2796.992,1697.997,"Pictures_Onset",1746.995,"07","Salty",7,60,90,2,"no","up","Left",1,"FF","FL",2,"up",639,1,"Students07"
6,0.380854159593582,0.516874969005585,-58.2977104187012,134.698120117188,42.1887512207031,248.999,1240.998,215.001,"Pictures_Onset",191.001,"07","Healthy",7,60,90,3,"no","up","Left",0,"FL","FF",2,"up",684,1,"Students07"
6,0.396261900663376,0.526666641235352,-51.0166702270508,132.226669311523,41.2897605895996,216.999,1524.006,498.009,"Pictures_Onset",474.009,"07","Healthy",7,60,90,3,"no","up","Left",0,"FL","FF",2,"up",684,1,"Students07"
6,0.37668251991272,0.495714336633682,-60.3558692932129,140.015701293945,44.1250762939453,332.006,1775.002,749.005,"Pictures_Onset",725.005,"07","Healthy",7,60,90,3,"no","up","Left",0,"FL","FF",2,"up",684,1,"Students07"
6,0.366060614585876,0.506787896156311,-65.3457565307617,137.235748291016,43.1130294799805,165.991,2140.006,1114.009,"Pictures_Onset",1090.009,"07","Healthy",7,60,90,3,"no","up","Left",0,"FL","FF",2,"up",684,1,"Students07"
6,0.606648147106171,0.507185220718384,49.2899971008301,137.123504638672,43.0720367431641,283.993,2389.005,1363.008,"Pictures_Onset",1339.008,"07","Salty",7,60,90,3,"no","up","Left",0,"FL","FF",2,"up",684,1,"Students07"
6,0.369777739048004,0.509311139583588,-63.6508865356445,136.582229614258,42.8740005493164,233.011,2754.995,1728.998,"Pictures_Onset",1704.998,"07","Healthy",7,60,90,3,"no","up","Left",0,"FL","FF",2,"up",684,1,"Students07"
7,0.385266691446304,0.496644407510757,-56.2691116333008,139.78466796875,44.0406608581543,233.996,1247.002,215.002,"Pictures_Onset",197.005,"07","Salty",7,60,90,4,"no","down","Right",0,"FF","FL",2,"down",810,1,"Students07"
7,0.414874941110611,0.493902802467346,-42.1369438171387,140.4677734375,44.288745880127,381.99,1531.008,499.008,"Pictures_Onset",481.011,"07","Salty",7,60,90,4,"no","down","Right",0,"FF","FL",2,"down",810,1,"Students07"
7,0.628666758537292,0.492863565683365,59.7768173217773,140.766494750977,44.3983306884766,348.992,1996.006,964.006,"Pictures_Onset",946.009,"07","Healthy",7,60,90,4,"no","down","Right",0,"FF","FL",2,"down",810,1,"Students07"
7,0.64166659116745,0.473188370466232,65.9534912109375,145.679870605469,46.1857948303223,365.99,2395.008,1363.008,"Pictures_Onset",1345.011,"07","Healthy",7,60,90,4,"no","down","Right",0,"FF","FL",2,"down",810,1,"Students07"
7,0.615722239017487,0.503500044345856,53.5422248840332,138.092498779297,43.4247169494629,184,2794.01,1762.01,"Pictures_Onset",1744.013,"07","Healthy",7,60,90,4,"no","down","Right",0,"FF","FL",2,"down",810,1,"Students07"
8,0.373526334762573,0.493824571371078,-61.8426322937012,140.495803833008,44.3007049560547,299.008,1258.995,233.997,"Pictures_Onset",208.998,"07","Healthy",7,60,90,1,"no","down","Right",1,"FL","FF",2,"down",620,1,"Students07"
8,0.35933330655098,0.482111126184464,-68.6430587768555,143.471664428711,45.3827781677246,184,1590.003,565.005,"Pictures_Onset",540.006,"07","Healthy",7,60,90,1,"no","down","Right",1,"FL","FF",2,"down",620,1,"Students07"
8,0.38400000333786,0.466714322566986,-56.8809547424316,147.293350219727,46.7742881774902,100.006,1808,783.002,"Pictures_Onset",758.003,"07","Healthy",7,60,90,1,"no","down","Right",1,"FL","FF",2,"down",620,1,"Students07"
8,0.6177619099617,0.477833360433578,54.5635719299316,144.513336181641,45.7611923217773,215.002,1974.003,949.005,"Pictures_Onset",924.006,"07","Salty",7,60,90,1,"no","down","Right",1,"FL","FF",2,"down",620,1,"Students07"
8,0.642140328884125,0.487438648939133,66.1850814819336,142.086868286133,44.8780708312988,299.008,2256.998,1232,"Pictures_Onset",1207.001,"07","Salty",7,60,90,1,"no","down","Right",1,"FL","FF",2,"down",620,1,"Students07"
8,0.586411833763123,0.503647029399872,39.6366691589355,138.033325195312,43.4011726379395,265.997,2606.003,1581.005,"Pictures_Onset",1556.006,"07","Salty",7,60,90,1,"no","down","Right",1,"FL","FF",2,"down",620,1,"Students07"
9,0.39020362496376,0.504277765750885,-53.9016647338867,137.846298217773,43.3353691101074,281.997,1253.005,217.997,"Pictures_Onset",203.008,"07","Salty",7,60,90,3,"no","up","Left",1,"FF","FL",3,"up",595,1,"Students07"
9,0.413166671991348,0.487833321094513,-42.9499969482422,142.022979736328,44.8554954528809,316.006,1568,532.992,"Pictures_Onset",518.003,"07","Salty",7,60,90,3,"no","up","Left",1,"FF","FL",3,"up",595,1,"Students07"
9,0.607907354831696,0.486259251832962,49.8457412719727,142.414993286133,44.9975929260254,284.006,1967.002,931.994,"Pictures_Onset",917.005,"07","Healthy",7,60,90,3,"no","up","Left",1,"FF","FL",3,"up",595,1,"Students07"
9,0.632099986076355,0.47296667098999,61.3803329467773,145.759994506836,46.2163314819336,150.003,2351.002,1315.994,"Pictures_Onset",1301.005,"07","Healthy",7,60,90,3,"no","up","Left",1,"FF","FL",3,"up",595,1,"Students07"
9,0.600033283233643,0.481566727161407,46.0923271179199,143.577667236328,45.4209976196289,150.003,2550.003,1514.995,"Pictures_Onset",1500.006,"07","Healthy",7,60,90,3,"no","up","Left",1,"FF","FL",3,"up",595,1,"Students07"
9,0.631388902664185,0.447083353996277,60.9972229003906,152.254745483398,48.5791664123535,183.002,2800,1764.992,"Pictures_Onset",1750.003,"07","Healthy",7,60,90,3,"no","up","Left",1,"FF","FL",3,"up",595,1,"Students07"
10,0.382305532693863,0.486222237348557,-57.637508392334,142.376388549805,44.9838905334473,184,1228.006,199.001,"Pictures_Onset",178.009,"07","Healthy",7,60,90,4,"no","up","Left",0,"FL","FF",3,"up",699,1,"Students07"
10,0.383529365062714,0.530313789844513,-57.1268577575684,131.277648925781,40.9447059631348,264.999,1462.003,432.998,"Pictures_Onset",412.006,"07","Healthy",7,60,90,4,"no","up","Left",0,"FL","FF",3,"up",699,1,"Students07"
10,0.387729167938232,0.424270868301392,-55.0883331298828,158.027084350586,50.6797904968262,249.997,1777.011,748.006,"Pictures_Onset",727.014,"07","Healthy",7,60,90,4,"no","up","Left",0,"FL","FF",3,"up",699,1,"Students07"
10,0.401179492473602,0.429461538791656,-48.7141075134277,156.705642700195,50.1982002258301,199.001,2061.005,1032,"Pictures_Onset",1011.008,"07","Healthy",7,60,90,4,"no","up","Left",0,"FL","FF",3,"up",699,1,"Students07"
10,0.327242404222488,0.460060596466064,-83.8675765991211,149.043350219727,47.4106063842773,167.002,2326.003,1296.998,"Pictures_Onset",1276.006,"07","Healthy",7,60,90,4,"no","up","Left",0,"FL","FF",3,"up",699,1,"Students07"
10,0.619058728218079,0.484549015760422,55.1943130493164,142.837265014648,45.1507873535156,265.997,2593.011,1564.006,"Pictures_Onset",1543.014,"07","Salty",7,60,90,4,"no","up","Left",0,"FL","FF",3,"up",699,1,"Students07"
11,0.618083298206329,0.480666637420654,54.6393775939941,143.791458129883,45.4972877502441,248.999,1274.995,249.997,"Pictures_Onset",224.998,"07","Healthy",7,60,90,1,"no","down","Right",0,"FF","FL",3,"down",639,1,"Students07"
11,0.609102547168732,0.507897436618805,50.4984588623047,136.959487915039,43.0120506286621,200,1556.992,531.994,"Pictures_Onset",506.995,"07","Healthy",7,60,90,1,"no","down","Right",0,"FF","FL",3,"down",639,1,"Students07"
11,0.630083382129669,0.492333322763443,60.4622192382812,140.829727172852,44.4222259521484,184.013,1789.99,764.992,"Pictures_Onset",739.993,"07","Healthy",7,60,90,1,"no","down","Right",0,"FF","FL",3,"down",639,1,"Students07"
11,0.61336362361908,0.513454616069794,52.5103034973145,135.555435180664,42.4999961853027,167.987,2006.003,981.005,"Pictures_Onset",956.006,"07","Healthy",7,60,90,1,"no","down","Right",0,"FF","FL",3,"down",639,1,"Students07"
11,0.583374977111816,0.453458338975906,38.1204147338867,150.684585571289,48.0095825195312,114.995,2240,1215.002,"Pictures_Onset",1190.003,"07","Healthy",7,60,90,1,"no","down","Right",0,"FF","FL",3,"down",639,1,"Students07"
11,0.385873079299927,0.476539611816406,-56.022216796875,144.841278076172,45.8809509277344,334.003,2537.997,1512.999,"Pictures_Onset",1488,"07","Salty",7,60,90,1,"no","down","Right",0,"FF","FL",3,"down",639,1,"Students07"
12,0.369396775960922,0.488872975111008,-63.8633346557617,141.748245239258,44.7552337646484,331.008,1340.992,316.992,"Pictures_Onset",290.995,"07","Healthy",7,60,90,2,"no","down","Right",1,"FL","FF",3,"down",849,1,"Students07"
12,0.396717965602875,0.466769188642502,-50.8371772766113,147.349731445312,46.793586730957,200,1705.997,681.997,"Pictures_Onset",656,"07","Healthy",7,60,90,2,"no","down","Right",1,"FL","FF",3,"down",849,1,"Students07"
12,0.410733371973038,0.489366680383682,-44.1273345947266,141.641662597656,44.7170028686523,150.003,1939.994,915.994,"Pictures_Onset",889.997,"07","Healthy",7,60,90,2,"no","down","Right",1,"FL","FF",3,"down",849,1,"Students07"
12,0.34179162979126,0.464541673660278,-77.0204162597656,147.850006103516,46.9762496948242,117.004,2171.994,1147.994,"Pictures_Onset",1121.997,"07","Healthy",7,60,90,2,"no","down","Right",1,"FL","FF",3,"down",849,1,"Students07"
12,0.33858335018158,0.467666655778885,-78.5385437011719,147.087493896484,46.6983337402344,248.998,2321.997,1297.997,"Pictures_Onset",1272,"07","Healthy",7,60,90,2,"no","down","Right",1,"FL","FF",3,"down",849,1,"Students07"
12,0.376933336257935,0.432600021362305,-60.2830009460449,155.89599609375,49.9053344726562,150.003,2620.992,1596.992,"Pictures_Onset",1570.995,"07","Healthy",7,60,90,2,"no","down","Right",1,"FL","FF",3,"down",849,1,"Students07"
13,0.606462895870209,0.490240693092346,49.1801872253418,141.390380859375,44.6255531311035,284.006,1279.002,248.999,"Pictures_Onset",229.005,"07","Healthy",7,60,90,4,"no","up","Left",1,"FF","FL",4,"up",763,1,"Students07"
13,0.38373327255249,0.513222277164459,-56.9846687316895,135.619323730469,42.5226631164551,232.998,1629.005,599.002,"Pictures_Onset",579.008,"07","Salty",7,60,90,4,"no","up","Left",1,"FF","FL",4,"up",763,1,"Students07"
13,0.405350923538208,0.506666660308838,-46.7217559814453,137.271759033203,43.1264915466309,300.006,1895.002,864.999,"Pictures_Onset",845.005,"07","Salty",7,60,90,4,"no","up","Left",1,"FF","FL",4,"up",763,1,"Students07"
13,0.390714347362518,0.445619076490402,-53.6716613769531,152.625244140625,48.7140502929688,215.002,2262.003,1232,"Pictures_Onset",1212.006,"07","Salty",7,60,90,4,"no","up","Left",1,"FF","FL",4,"up",763,1,"Students07"
13,0.408041626214981,0.462666660547256,-45.3954200744629,148.349380493164,47.1568756103516,248.998,2512,1481.997,"Pictures_Onset",1462.003,"07","Salty",7,60,90,4,"no","up","Left",1,"FF","FL",4,"up",763,1,"Students07"
14,0.378454566001892,0.500545501708984,-59.533935546875,138.836975097656,43.6960601806641,166.003,1253.005,166.003,"Pictures_Onset",203.008,"07","Healthy",7,60,90,1,"no","up","Left",0,"FL","FF",4,"up",867,1,"Students07"
14,0.405888855457306,0.503822267055511,-46.3959999084473,137.969543457031,43.3800010681152,233.997,1452.006,365.004,"Pictures_Onset",402.009,"07","Healthy",7,60,90,1,"no","up","Left",0,"FL","FF",4,"up",867,1,"Students07"
14,0.619785666465759,0.504000067710876,55.5171432495117,137.933578491211,43.3669052124023,216,1769.011,682.009,"Pictures_Onset",719.014,"07","Salty",7,60,90,1,"no","up","Left",0,"FL","FF",4,"up",867,1,"Students07"
14,0.637882351875305,0.457666665315628,64.1384353637695,149.585479736328,47.6088218688965,266.995,2019.008,932.006,"Pictures_Onset",969.011,"07","Salty",7,60,90,1,"no","up","Left",0,"FL","FF",4,"up",867,1,"Students07"
14,0.376435875892639,0.509692251682281,-60.4202537536621,136.5,42.8461570739746,199.002,2368,1280.998,"Pictures_Onset",1318.003,"07","Healthy",7,60,90,1,"no","up","Left",0,"FL","FF",4,"up",867,1,"Students07"
14,0.400909125804901,0.491121202707291,-48.8021240234375,141.165756225586,44.5421180725098,166.989,2600.013,1513.011,"Pictures_Onset",1550.016,"07","Healthy",7,60,90,1,"no","up","Left",0,"FL","FF",4,"up",867,1,"Students07"
14,0.386999994516373,0.439242392778397,-55.4803009033203,154.258483886719,49.3066673278809,167.002,2817.011,1730.009,"Pictures_Onset",1767.014,"07","Healthy",7,60,90,1,"no","up","Left",0,"FL","FF",4,"up",867,1,"Students07"
15,0.601899921894073,0.489366620779037,47.052001953125,141.608993530273,44.7038307189941,314.995,1285.005,251.008,"Pictures_Onset",235.008,"07","Healthy",7,60,90,2,"no","down","Right",0,"FF","FL",4,"down",692,1,"Students07"
15,0.599871754646301,0.482794880867004,46.0720481872559,143.234359741211,45.2982025146484,199.001,1633.997,600,"Pictures_Onset",584,"07","Healthy",7,60,90,2,"no","down","Right",0,"FF","FL",4,"down",692,1,"Students07"
15,0.623487234115601,0.492615401744843,57.2802505493164,140.813583374023,44.4153861999512,199.987,1867.008,833.011,"Pictures_Onset",817.011,"07","Healthy",7,60,90,2,"no","down","Right",0,"FF","FL",4,"down",692,1,"Students07"
15,0.368142873048782,0.484595239162445,-64.4054718017578,142.836441040039,45.1528511047363,216.998,2149.005,1115.008,"Pictures_Onset",1099.008,"07","Salty",7,60,90,2,"no","down","Right",0,"FF","FL",4,"down",692,1,"Students07"
15,0.391666680574417,0.486954510211945,-53.2060546875,142.203475952148,44.9204559326172,350.003,2416,1382.003,"Pictures_Onset",1366.003,"07","Salty",7,60,90,2,"no","down","Right",0,"FF","FL",4,"down",692,1,"Students07"
15,0.629407465457916,0.504481554031372,60.0951881408691,137.817047119141,43.3255577087402,132.007,2848.998,1815.001,"Pictures_Onset",1799.001,"07","Healthy",7,60,90,2,"no","down","Right",0,"FF","FL",4,"down",692,1,"Students07"
16,0.385777771472931,0.50770366191864,-55.9981498718262,137.01741027832,43.0325927734375,134.004,1328.998,299.993,"Pictures_Onset",279.001,"07","Healthy",7,60,90,3,"no","down","Right",1,"FL","FF",4,"down",670,1,"Students07"
16,0.384909123182297,0.511393964290619,-56.330005645752,136.085464477539,42.6945457458496,167.002,1496,466.995,"Pictures_Onset",446.003,"07","Healthy",7,60,90,3,"no","down","Right",1,"FL","FF",4,"down",670,1,"Students07"
16,0.62462967634201,0.50511109828949,57.8318481445312,137.640365600586,43.2592582702637,133.005,1728.998,699.993,"Pictures_Onset",679.001,"07","Salty",7,60,90,3,"no","down","Right",1,"FL","FF",4,"down",670,1,"Students07"
16,0.628208339214325,0.509874999523163,59.5616683959961,136.446258544922,42.8270797729492,116.992,1895.002,865.997,"Pictures_Onset",845.005,"07","Salty",7,60,90,3,"no","down","Right",1,"FL","FF",4,"down",670,1,"Students07"
16,0.651529431343079,0.508235335350037,70.6898040771484,136.846282958984,42.971565246582,265.997,2045.005,1016,"Pictures_Onset",995.008,"07","Salty",7,60,90,3,"no","down","Right",1,"FL","FF",4,"down",670,1,"Students07"
16,0.644111096858978,0.460730195045471,67.1055526733398,148.836685180664,47.335075378418,334.003,2344,1314.995,"Pictures_Onset",1294.003,"07","Salty",7,60,90,3,"no","down","Right",1,"FL","FF",4,"down",670,1,"Students07"
16,0.641939401626587,0.462909132242203,66.0984878540039,148.290298461914,47.13818359375,165.991,2710.003,1680.998,"Pictures_Onset",1660.006,"07","Salty",7,60,90,3,"no","down","Right",1,"FL","FF",4,"down",670,1,"Students07"
17,0.378269821405411,0.50299996137619,-59.5973014831543,138.166351318359,43.4509582519531,333.004,1311.002,281.997,"Pictures_Onset",261.005,"07","Salty",7,60,90,1,"no","up","Left",1,"FF","FL",5,"up",669,1,"Students07"
17,0.391307711601257,0.512846112251282,-53.3225555419922,135.689483642578,42.5497436523438,199.002,1678.003,648.998,"Pictures_Onset",628.006,"07","Salty",7,60,90,1,"no","up","Left",1,"FF","FL",5,"up",669,1,"Students07"
17,0.379583328962326,0.422875016927719,-58.9339561462402,158.394378662109,50.8143768310547,249.996,1927.002,897.997,"Pictures_Onset",877.005,"07","Salty",7,60,90,1,"no","up","Left",1,"FF","FL",5,"up",669,1,"Students07"
17,0.61537504196167,0.468416631221771,53.4608306884766,146.908538818359,46.6325035095215,248.999,2260.006,1231.001,"Pictures_Onset",1210.009,"07","Healthy",7,60,90,1,"no","up","Left",1,"FF","FL",5,"up",669,1,"Students07"
17,0.599861085414886,0.490194469690323,46.085277557373,141.396392822266,44.6277770996094,184,2542.003,1512.998,"Pictures_Onset",1492.006,"07","Healthy",7,60,90,1,"no","up","Left",1,"FF","FL",5,"up",669,1,"Students07"
18,0.373921573162079,0.49350979924202,-61.6548919677734,140.578430175781,44.3284301757812,265.997,1216.998,182.003,"Pictures_Onset",167.001,"07","Healthy",7,60,90,2,"no","up","Left",0,"FL","FF",5,"up",766,1,"Students07"
18,0.37678787112236,0.479000002145767,-60.274242401123,144.203628540039,45.6506042480469,165.99,1517.005,482.01,"Pictures_Onset",467.008,"07","Healthy",7,60,90,2,"no","up","Left",0,"FL","FF",5,"up",766,1,"Students07"
18,0.624738097190857,0.493095308542252,57.9352340698242,140.698348999023,44.3714294433594,216,1849.997,815.002,"Pictures_Onset",800,"07","Salty",7,60,90,2,"no","up","Left",0,"FL","FF",5,"up",766,1,"Students07"
18,0.608761847019196,0.528571426868439,50.2111930847168,131.709274291992,41.1002388000488,215.001,2099.994,1064.999,"Pictures_Onset",1049.997,"07","Salty",7,60,90,2,"no","up","Left",0,"FL","FF",5,"up",766,1,"Students07"
18,0.376095205545425,0.515047550201416,-60.6578598022461,135.152618408203,42.3538093566895,216,2399.002,1364.007,"Pictures_Onset",1349.005,"07","Healthy",7,60,90,2,"no","up","Left",0,"FL","FF",5,"up",766,1,"Students07"
18,0.393866688013077,0.474999934434891,-52.1480026245117,145.208435058594,46.0164413452148,232,2648.998,1614.003,"Pictures_Onset",1599.001,"07","Healthy",7,60,90,2,"no","up","Left",0,"FL","FF",5,"up",766,1,"Students07"
19,0.602628231048584,0.486038476228714,47.3625679016113,142.482955932617,45.0216636657715,415.001,1326.989,299.994,"Pictures_Onset",276.992,"07","Healthy",7,60,90,3,"no","down","Right",0,"FF","FL",5,"down",620,1,"Students07"
19,0.601692259311676,0.502743601799011,46.925895690918,138.236663818359,43.4761543273926,199.987,1776,749.005,"Pictures_Onset",726.003,"07","Healthy",7,60,90,3,"no","down","Right",0,"FF","FL",5,"down",620,1,"Students07"
19,0.604606091976166,0.47563636302948,48.3066635131836,145.082412719727,45.9690895080566,167.002,2007.987,980.992,"Pictures_Onset",957.99,"07","Healthy",7,60,90,3,"no","down","Right",0,"FF","FL",5,"down",620,1,"Students07"
19,0.370384573936462,0.485076904296875,-63.3699989318848,142.658966064453,45.0874366760254,199.001,2257.997,1231.002,"Pictures_Onset",1208,"07","Salty",7,60,90,3,"no","down","Right",0,"FF","FL",5,"down",620,1,"Students07"
19,0.400312483310699,0.516499996185303,-49.1152076721191,134.77897644043,42.2193756103516,250.995,2523.994,1496.999,"Pictures_Onset",1473.997,"07","Salty",7,60,90,3,"no","down","Right",0,"FF","FL",5,"down",620,1,"Students07"
20,0.380796313285828,0.501166582107544,-58.3425979614258,138.628692626953,43.6201782226562,282.01,1229.99,199.001,"Pictures_Onset",179.993,"07","Healthy",7,60,90,4,"no","down","Right",1,"FL","FF",5,"down",666,1,"Students07"
20,0.624925851821899,0.495518535375595,58.0033226013184,140.066833496094,44.1440696716309,282.996,1728.998,698.009,"Pictures_Onset",679.001,"07","Salty",7,60,90,4,"no","down","Right",1,"FL","FF",5,"down",666,1,"Students07"
20,0.624727249145508,0.512636363506317,57.8706092834473,135.762710571289,42.5751571655273,166.003,2044.992,1014.003,"Pictures_Onset",994.995,"07","Salty",7,60,90,4,"no","down","Right",1,"FL","FF",5,"down",666,1,"Students07"
20,0.606625020503998,0.561874985694885,49.2325019836426,123.37353515625,38.0677108764648,250.01,2244.992,1214.003,"Pictures_Onset",1194.995,"07","Salty",7,60,90,4,"no","down","Right",1,"FL","FF",5,"down",666,1,"Students07"
20,0.619222223758698,0.452861160039902,55.2755584716797,150.809448242188,48.0522270202637,183.002,2544.998,1514.009,"Pictures_Onset",1495.001,"07","Salty",7,60,90,4,"no","down","Right",1,"FL","FF",5,"down",666,1,"Students07"
20,0.376166641712189,0.493566691875458,-60.6803359985352,140.518997192383,44.3066635131836,150.003,2827.994,1797.005,"Pictures_Onset",1777.997,"07","Healthy",7,60,90,4,"no","down","Right",1,"FL","FF",5,"down",666,1,"Students07"
21,0.614266633987427,0.485444486141205,52.8800010681152,142.602676391602,45.0668907165527,232.999,1302.003,280.998,"Pictures_Onset",252.006,"07","Healthy",7,60,90,2,"no","down","Left",1,"FF","FL",6,"down",660,1,"Students07"
21,0.628673315048218,0.48060667514801,59.7417221069336,143.817077636719,45.5081329345703,398.335333333333,1569.66466666667,580.659666666667,"Pictures_Onset",551.667666666667,"07","Healthy",7,60,90,2,"no","down","Left",1,"FF","FL",6,"down",660,1,"Students07"
21,0.376819401979446,0.488124936819077,-60.3155632019043,141.892364501953,44.8077812194824,382.004,2168.998,1147.993,"Pictures_Onset",1119.001,"07","Salty",7,60,90,2,"no","down","Left",1,"FF","FL",6,"down",660,1,"Students07"
21,0.386925965547562,0.491944432258606,-55.4898147583008,140.97705078125,44.4731483459473,284.006,2584,1562.995,"Pictures_Onset",1534.003,"07","Salty",7,60,90,2,"no","down","Left",1,"FF","FL",6,"down",660,1,"Students07"
22,0.618124961853027,0.500541627407074,54.6691665649414,138.801254272461,43.6816673278809,117.004,1323.994,282.996,"Pictures_Onset",273.997,"07","Salty",7,60,90,3,"no","down","Left",0,"FL","FF",6,"down",879,1,"Students07"
22,0.618099987506866,0.51610004901886,54.7476692199707,134.907333374023,42.2650032043457,151.002,1472.998,432,"Pictures_Onset",423.001,"07","Salty",7,60,90,3,"no","down","Left",0,"FL","FF",6,"down",879,1,"Students07"
22,0.628287434577942,0.497839063405991,59.5790786743164,139.491256713867,43.9339179992676,465.997,1656.998,616,"Pictures_Onset",607.001,"07","Salty",7,60,90,3,"no","down","Left",0,"FL","FF",6,"down",879,1,"Students07"
22,0.378074079751968,0.471944391727448,-59.6779632568359,145.981857299805,46.2951889038086,281.996,2207.002,1166.004,"Pictures_Onset",1157.005,"07","Healthy",7,60,90,3,"no","down","Left",0,"FL","FF",6,"down",879,1,"Students07"
22,0.388629585504532,0.482777804136276,-54.7244415283203,143.271850585938,45.310001373291,134.003,2521.997,1480.999,"Pictures_Onset",1472,"07","Healthy",7,60,90,3,"no","down","Left",0,"FL","FF",6,"down",879,1,"Students07"
22,0.615511119365692,0.51199996471405,53.4984474182129,135.931777954102,42.6375617980957,232.998,2737.997,1696.999,"Pictures_Onset",1688,"07","Salty",7,60,90,3,"no","down","Left",0,"FL","FF",6,"down",879,1,"Students07"
23,0.376964926719666,0.498543828725815,-60.2535095214844,139.320693969727,43.8710517883301,298.995,1273.997,248.999,"Pictures_Onset",224,"07","Salty",7,60,90,4,"no","up","Right",0,"FF","FL",6,"up",691,1,"Students07"
23,0.388666659593582,0.491844445466995,-54.5893363952637,141.006881713867,44.4873275756836,232.013,1607.987,582.989,"Pictures_Onset",557.99,"07","Salty",7,60,90,4,"no","up","Right",0,"FF","FL",6,"up",691,1,"Students07"
23,0.406359016895294,0.47741025686264,-46.2725639343262,144.632568359375,45.8038482666016,200,1872.998,848,"Pictures_Onset",823.001,"07","Salty",7,60,90,4,"no","up","Right",0,"FF","FL",6,"up",691,1,"Students07"
23,0.614487171173096,0.503923058509827,52.9889755249023,137.974624633789,43.3825607299805,199.001,2139.994,1114.996,"Pictures_Onset",1089.997,"07","Healthy",7,60,90,4,"no","up","Right",0,"FF","FL",6,"up",691,1,"Students07"
23,0.631740748882294,0.475444436073303,61.2633323669434,145.158889770508,45.9962959289551,134.003,2371.994,1346.996,"Pictures_Onset",1321.997,"07","Healthy",7,60,90,4,"no","up","Right",0,"FF","FL",6,"up",691,1,"Students07"
23,0.385333329439163,0.485030293464661,-56.2509155273438,142.686660766602,45.095760345459,167.002,2588.992,1563.994,"Pictures_Onset",1538.995,"07","Salty",7,60,90,4,"no","up","Right",0,"FF","FL",6,"up",691,1,"Students07"
23,0.39922222495079,0.508361041545868,-49.5919380187988,136.822509765625,42.9619445800781,184,2787.994,1762.996,"Pictures_Onset",1737.997,"07","Salty",7,60,90,4,"no","up","Right",0,"FF","FL",6,"up",691,1,"Students07"
24,0.387833327054977,0.467500001192093,-55.0025024414062,147.13166809082,46.7147216796875,182.989,1243.008,216.013,"Pictures_Onset",193.011,"07","Healthy",7,60,90,1,"no","up","Right",1,"FL","FF",6,"up",659,1,"Students07"
24,0.637555480003357,0.489600002765656,63.9846649169922,141.587127685547,44.6968879699707,234.009,1625.997,599.002,"Pictures_Onset",576,"07","Salty",7,60,90,1,"no","up","Right",1,"FL","FF",6,"up",659,1,"Students07"
24,0.619078278541565,0.496235281229019,55.114315032959,139.888412475586,44.0790176391602,266.996,1892.006,865.011,"Pictures_Onset",842.009,"07","Salty",7,60,90,1,"no","up","Right",1,"FL","FF",6,"up",659,1,"Students07"
24,0.636604189872742,0.494416654109955,63.5512542724609,140.341659545898,44.2431221008301,248.998,2192,1165.005,"Pictures_Onset",1142.003,"07","Salty",7,60,90,1,"no","up","Right",1,"FL","FF",6,"up",659,1,"Students07"
24,0.614636361598969,0.487606018781662,53.0484848022461,142.045455932617,44.8633346557617,166.989,2491.008,1464.013,"Pictures_Onset",1441.011,"07","Salty",7,60,90,1,"no","up","Right",1,"FL","FF",6,"up",659,1,"Students07"
24,0.637547612190247,0.480476170778275,63.9919052124023,143.825942993164,45.5100021362305,216.998,2741.005,1714.01,"Pictures_Onset",1691.008,"07","Salty",7,60,90,1,"no","up","Right",1,"FL","FF",6,"up",659,1,"Students07"
25,0.401944398880005,0.498333334922791,-48.2744445800781,139.364715576172,43.8869476318359,184,1464.998,432,"Pictures_Onset",415.001,"07","Salty",7,60,90,3,"no","down","Left",1,"FF","FL",7,"down",595,1,"Students07"
25,0.381599992513657,0.491711109876633,-58.0433349609375,141.047348022461,44.4995536804199,231.987,1683.008,650.01,"Pictures_Onset",633.011,"07","Salty",7,60,90,3,"no","down","Left",1,"FF","FL",7,"down",595,1,"Students07"
25,0.627946615219116,0.505120038986206,59.3614616394043,137.647064208984,43.2618637084961,400,1999.002,966.004,"Pictures_Onset",949.005,"07","Healthy",7,60,90,3,"no","down","Left",1,"FF","FL",7,"down",595,1,"Students07"
25,0.376833319664001,0.499347239732742,-60.2608337402344,139.129577636719,43.8016662597656,383.002,2480,1447.002,"Pictures_Onset",1430.003,"07","Salty",7,60,90,3,"no","down","Left",1,"FF","FL",7,"down",595,1,"Students07"
26,0.383175402879715,0.485315829515457,-57.2724533081055,142.650695800781,45.0836791992188,298.996,1268.006,232,"Pictures_Onset",218.009,"07","Healthy",7,60,90,4,"no","down","Left",0,"FL","FF",7,"down",668,1,"Students07"
26,0.398033320903778,0.505999982357025,-50.1783332824707,137.39599609375,43.1696701049805,150.004,1600.998,564.992,"Pictures_Onset",551.001,"07","Healthy",7,60,90,4,"no","down","Left",0,"FL","FF",7,"down",668,1,"Students07"
26,0.616541683673859,0.473083347082138,54.0175018310547,145.720825195312,46.2008323669434,117.005,1816.998,780.992,"Pictures_Onset",767.001,"07","Salty",7,60,90,4,"no","down","Left",0,"FL","FF",7,"down",668,1,"Students07"
26,0.621124982833862,0.475208342075348,56.1470832824707,145.209167480469,46.0154151916504,117.004,1967.002,930.996,"Pictures_Onset",917.005,"07","Salty",7,60,90,4,"no","down","Left",0,"FL","FF",7,"down",668,1,"Students07"
26,0.628444373607635,0.484977722167969,59.7028884887695,142.740676879883,45.1159934997559,233.997,2116.006,1080,"Pictures_Onset",1066.009,"07","Salty",7,60,90,4,"no","down","Left",0,"FL","FF",7,"down",668,1,"Students07"
26,0.615895867347717,0.537500023841858,53.6864585876465,129.464584350586,40.2843742370605,248.998,2384,1347.994,"Pictures_Onset",1334.003,"07","Salty",7,60,90,4,"no","down","Left",0,"FL","FF",7,"down",668,1,"Students07"
26,0.622974395751953,0.471205115318298,57.0938453674316,146.216156005859,46.379997253418,199.001,2665.997,1629.991,"Pictures_Onset",1616,"07","Salty",7,60,90,4,"no","down","Left",0,"FL","FF",7,"down",668,1,"Students07"
27,0.379509836435318,0.474490165710449,-58.9786262512207,145.352172851562,46.0660781860352,265.997,1248,216.998,"Pictures_Onset",198.003,"07","Salty",7,60,90,1,"no","up","Right",0,"FF","FL",7,"up",910,1,"Students07"
27,0.400333344936371,0.499981462955475,-49.1042556762695,138.908508300781,43.722038269043,283.008,1546.995,515.993,"Pictures_Onset",496.998,"07","Salty",7,60,90,1,"no","up","Right",0,"FF","FL",7,"up",910,1,"Students07"
27,0.612000048160553,0.494555532932281,51.8377799987793,140.311477661133,44.2333297729492,134.003,1896,864.998,"Pictures_Onset",846.003,"07","Healthy",7,60,90,1,"no","up","Right",0,"FF","FL",7,"up",910,1,"Students07"
27,0.616166651248932,0.497500002384186,53.7599983215332,139.544998168945,43.9549980163574,115.008,2064,1032.998,"Pictures_Onset",1014.003,"07","Healthy",7,60,90,1,"no","up","Right",0,"FF","FL",7,"up",910,1,"Students07"
27,0.642697036266327,0.496121227741241,66.4418182373047,139.877868652344,44.0748481750488,167.001,2213.005,1182.003,"Pictures_Onset",1163.008,"07","Healthy",7,60,90,1,"no","up","Right",0,"FF","FL",7,"up",910,1,"Students07"
27,0.383944481611252,0.489472180604935,-56.9058380126953,141.595825195312,44.7002830505371,182.003,2446.003,1415.001,"Pictures_Onset",1396.006,"07","Salty",7,60,90,1,"no","up","Right",0,"FF","FL",7,"up",910,1,"Students07"
27,0.380333364009857,0.494233310222626,-58.6676712036133,140.41032409668,44.2690010070801,149.004,2663.002,1632,"Pictures_Onset",1613.005,"07","Salty",7,60,90,1,"no","up","Right",0,"FF","FL",7,"up",910,1,"Students07"
27,0.396222233772278,0.497629642486572,-51.0340728759766,139.520004272461,43.9459228515625,134.003,2845.005,1814.003,"Pictures_Onset",1795.008,"07","Salty",7,60,90,1,"no","up","Right",0,"FF","FL",7,"up",910,1,"Students07"
28,0.381311118602753,0.490377753973007,-58.1951179504395,141.365097045898,44.6151084899902,232.998,1312,233.997,"Pictures_Onset",262.003,"07","Healthy",7,60,90,2,"no","up","Right",1,"FL","FF",7,"up",726,1,"Students07"
28,0.380458354949951,0.495958387851715,-58.5179138183594,139.96061706543,44.1062469482422,249.997,1576.998,498.995,"Pictures_Onset",527.001,"07","Healthy",7,60,90,2,"no","up","Right",1,"FL","FF",7,"up",726,1,"Students07"
28,0.631999909877777,0.494882345199585,61.3825454711914,140.212356567383,44.1954956054688,265.011,2060.992,982.989,"Pictures_Onset",1010.995,"07","Salty",7,60,90,2,"no","up","Right",1,"FL","FF",7,"up",726,1,"Students07"
28,0.642952442169189,0.492857158184052,66.5354766845703,140.699295043945,44.3730964660645,215.002,2360,1281.997,"Pictures_Onset",1310.003,"07","Salty",7,60,90,2,"no","up","Right",1,"FL","FF",7,"up",726,1,"Students07"
28,0.627925872802734,0.551629722118378,59.4457397460938,125.894813537598,38.9844436645508,284.006,2625.997,1547.994,"Pictures_Onset",1576,"07","Salty",7,60,90,2,"no","up","Right",1,"FL","FF",7,"up",726,1,"Students07"
29,0.632044494152069,0.475377768278122,61.3731117248535,145.152435302734,45.9926681518555,232.998,1309.005,282.01,"Pictures_Onset",259.008,"07","Healthy",7,60,90,4,"no","down","Left",1,"FF","FL",8,"down",909,1,"Students07"
29,0.649851858615875,0.490055620670319,69.8981399536133,141.452224731445,44.6468544006348,282.995,1575.002,548.007,"Pictures_Onset",525.005,"07","Healthy",7,60,90,4,"no","down","Left",1,"FF","FL",8,"down",909,1,"Students07"
29,0.602777779102325,0.469511091709137,47.433780670166,146.623107910156,46.5297775268555,232.999,1908.006,881.011,"Pictures_Onset",858.009,"07","Healthy",7,60,90,4,"no","down","Left",1,"FF","FL",8,"down",909,1,"Students07"
29,0.383380949497223,0.483119040727615,-57.1895217895508,143.184768676758,45.2778587341309,216,2224.998,1198.003,"Pictures_Onset",1175.001,"07","Salty",7,60,90,4,"no","down","Left",1,"FF","FL",8,"down",909,1,"Students07"
29,0.340245634317398,0.50600004196167,-77.7414016723633,137.408767700195,43.1750869750977,300.006,2489.997,1463.002,"Pictures_Onset",1440,"07","Salty",7,60,90,4,"no","down","Left",1,"FF","FL",8,"down",909,1,"Students07"
30,0.368487179279327,0.482179492712021,-64.2992324829102,143.413589477539,45.3612823486328,200,1230.003,200,"Pictures_Onset",180.006,"07","Healthy",7,60,90,1,"no","down","Left",0,"FL","FF",8,"down",733,1,"Students07"
30,0.391229212284088,0.488749951124191,-53.3779220581055,141.748962402344,44.7541694641113,248.998,1464,433.997,"Pictures_Onset",414.003,"07","Healthy",7,60,90,1,"no","down","Left",0,"FL","FF",8,"down",733,1,"Students07"
30,0.602111160755157,0.496750026941299,47.1241645812988,139.786117553711,44.0416603088379,182.003,1796.992,766.989,"Pictures_Onset",746.995,"07","Salty",7,60,90,1,"no","down","Left",0,"FL","FF",8,"down",733,1,"Students07"
30,0.399948716163635,0.48712819814682,-49.2623100280762,142.200775146484,44.919620513916,416,2063.002,1032.999,"Pictures_Onset",1013.005,"07","Healthy",7,60,90,1,"no","down","Left",0,"FL","FF",8,"down",733,1,"Students07"
30,0.354888916015625,0.460833311080933,-70.7033386230469,148.796951293945,47.3200035095215,183.002,2528.998,1498.995,"Pictures_Onset",1479.001,"07","Healthy",7,60,90,1,"no","down","Left",0,"FL","FF",8,"down",733,1,"Students07"
30,0.345333397388458,0.451733320951462,-75.3046646118164,151.075775146484,48.1520004272461,232,2744.998,1714.995,"Pictures_Onset",1695.001,"07","Healthy",7,60,90,1,"no","down","Left",0,"FL","FF",8,"down",733,1,"Students07"
31,0.366361111402512,0.486805528402328,-65.2692947387695,142.263061523438,44.9422187805176,382.989,1293.005,215.002,"Pictures_Onset",243.008,"07","Salty",7,60,90,2,"no","up","Right",0,"FF","FL",8,"up",710,1,"Students07"
31,0.418624967336655,0.459625005722046,-40.3062515258789,149.133743286133,47.4429168701172,114.995,1727.002,648.999,"Pictures_Onset",677.005,"07","Salty",7,60,90,2,"no","up","Right",0,"FF","FL",8,"up",710,1,"Students07"
31,0.628911137580872,0.475955545902252,59.8828887939453,144.998886108398,45.9366683959961,232.999,1926.003,848,"Pictures_Onset",876.006,"07","Healthy",7,60,90,2,"no","up","Right",0,"FF","FL",8,"up",710,1,"Students07"
31,0.642137229442596,0.490921586751938,66.2339172363281,141.21647644043,44.5621604919434,265.997,2192.998,1114.995,"Pictures_Onset",1143.001,"07","Healthy",7,60,90,2,"no","up","Right",0,"FF","FL",8,"up",710,1,"Students07"
31,0.619361102581024,0.46041664481163,55.3566703796387,148.873062133789,47.3480644226074,183.001,2491.994,1413.991,"Pictures_Onset",1441.997,"07","Healthy",7,60,90,2,"no","up","Right",0,"FF","FL",8,"up",710,1,"Students07"
31,0.667428612709045,0.483904808759689,78.2485733032227,142.968826293945,45.1983299255371,216,2725.005,1647.002,"Pictures_Onset",1675.008,"07","Healthy",7,60,90,2,"no","up","Right",0,"FF","FL",8,"up",710,1,"Students07"
32,0.381333351135254,0.512833297252655,-58.0902404785156,135.698577880859,42.553092956543,216.998,1263.002,200,"Pictures_Onset",213.005,"07","Healthy",7,60,90,3,"no","up","Right",1,"FL","FF",8,"up",2476,1,"Students07"
32,0.407282024621964,0.517794907093048,-45.7189750671387,134.41845703125,42.0881996154785,200,1512.998,449.996,"Pictures_Onset",463.001,"07","Healthy",7,60,90,3,"no","up","Right",1,"FL","FF",8,"up",2476,1,"Students07"
32,0.62479168176651,0.516541659832001,57.9025001525879,134.782501220703,42.221248626709,117.005,1794.995,731.993,"Pictures_Onset",744.998,"07","Salty",7,60,90,3,"no","up","Right",1,"FL","FF",8,"up",2476,1,"Students07"
32,0.587428569793701,0.534142851829529,40.1276206970215,130.353576660156,40.6073799133301,216,2079.002,1016,"Pictures_Onset",1029.005,"07","Salty",7,60,90,3,"no","up","Right",1,"FL","FF",8,"up",2476,1,"Students07"
32,0.390499979257584,0.496291667222977,-53.7429161071777,139.870819091797,44.0704154968262,117.005,2361.997,1298.995,"Pictures_Onset",1312,"07","Healthy",7,60,90,3,"no","up","Right",1,"FL","FF",8,"up",2476,1,"Students07"
32,0.391124993562698,0.498500019311905,-53.4679183959961,139.297088623047,43.8637466430664,118.003,2511.002,1448,"Pictures_Onset",1461.005,"07","Healthy",7,60,90,3,"no","up","Right",1,"FL","FF",8,"up",2476,1,"Students07"
32,0.601416647434235,0.502708375453949,46.8212509155273,138.248336791992,43.4816665649414,116.992,2711.002,1648,"Pictures_Onset",1661.005,"07","Salty",7,60,90,3,"no","up","Right",1,"FL","FF",8,"up",2476,1,"Students07"
32,0.597374975681305,0.505500018596649,44.8737525939941,137.502914428711,43.209587097168,116.992,2861.005,1798.003,"Pictures_Onset",1811.008,"07","Salty",7,60,90,3,"no","up","Right",1,"FL","FF",8,"up",2476,1,"Students07"
33,0.383222192525864,0.507250010967255,-57.1738891601562,137.095825195312,43.0594444274902,183.002,1270.003,232,"Pictures_Onset",220.006,"07","Salty",7,60,90,1,"no","down","Left",1,"FF","FL",9,"down",655,1,"Students07"
33,0.640866637229919,0.498033374547958,65.5376739501953,139.443664550781,43.9160003662109,149.005,1670.003,632,"Pictures_Onset",620.006,"07","Healthy",7,60,90,1,"no","down","Left",1,"FF","FL",9,"down",655,1,"Students07"
33,0.361857116222382,0.486634939908981,-67.3907928466797,142.30126953125,44.9561920166016,332.992,2002.01,964.007,"Pictures_Onset",952.013,"07","Salty",7,60,90,1,"no","down","Left",1,"FF","FL",9,"down",655,1,"Students07"
33,0.394866675138474,0.437899976968765,-51.7080001831055,154.56364440918,49.4206657409668,149.991,2385.011,1347.008,"Pictures_Onset",1335.014,"07","Salty",7,60,90,1,"no","down","Left",1,"FF","FL",9,"down",655,1,"Students07"
33,0.349551260471344,0.497128188610077,-73.2264099121094,139.662963867188,43.9961547851562,416,2584,1545.997,"Pictures_Onset",1534.003,"07","Salty",7,60,90,1,"no","down","Left",1,"FF","FL",9,"down",655,1,"Students07"
34,0.365806967020035,0.484245598316193,-65.5471954345703,142.904907226562,45.175968170166,299.993,1242.01,216.999,"Pictures_Onset",192.013,"07","Healthy",7,60,90,2,"no","down","Left",0,"FL","FF",9,"down",651,1,"Students07"
34,0.612644374370575,0.491555601358414,52.1528930664062,141.043319702148,44.498893737793,233.011,1624,598.989,"Pictures_Onset",574.003,"07","Salty",7,60,90,2,"no","down","Left",0,"FL","FF",9,"down",651,1,"Students07"
34,0.642105281352997,0.475175470113754,66.1236801147461,145.146118164062,45.9910583496094,299.994,1907.008,881.997,"Pictures_Onset",857.011,"07","Salty",7,60,90,2,"no","down","Left",0,"FL","FF",9,"down",651,1,"Students07"
34,0.65330296754837,0.46551513671875,71.4948425292969,147.620910644531,46.8933334350586,166.003,2240,1214.989,"Pictures_Onset",1190.003,"07","Salty",7,60,90,2,"no","down","Left",0,"FL","FF",9,"down",651,1,"Students07"
34,0.602964878082275,0.496175408363342,47.5570182800293,139.898071289062,44.0806999206543,299.008,2456,1430.989,"Pictures_Onset",1406.003,"07","Salty",7,60,90,2,"no","down","Left",0,"FL","FF",9,"down",651,1,"Students07"
34,0.616111099720001,0.502194464206696,53.7819404602051,138.399719238281,43.5369453430176,183.001,2789.005,1763.994,"Pictures_Onset",1739.008,"07","Salty",7,60,90,2,"no","down","Left",0,"FL","FF",9,"down",651,1,"Students07"
35,0.384122759103775,0.510228037834167,-56.7971954345703,136.382995605469,42.8012237548828,300.006,1289.997,265.997,"Pictures_Onset",240,"07","Salty",7,60,90,3,"no","up","Right",0,"FF","FL",9,"up",676,1,"Students07"
35,0.406696975231171,0.475636303424835,-46.0393943786621,145.045471191406,45.955150604248,168,1622.003,598.003,"Pictures_Onset",572.006,"07","Salty",7,60,90,3,"no","up","Right",0,"FF","FL",9,"up",676,1,"Students07"
35,0.41060608625412,0.465666681528091,-44.1951522827148,147.612731933594,46.8875732421875,168,1872,848,"Pictures_Onset",822.003,"07","Salty",7,60,90,3,"no","up","Right",0,"FF","FL",9,"up",676,1,"Students07"
35,0.374888896942139,0.485185146331787,-61.2559280395508,142.665557861328,45.0907402038574,132.006,2089.997,1065.997,"Pictures_Onset",1040,"07","Salty",7,60,90,3,"no","up","Right",0,"FF","FL",9,"up",676,1,"Students07"
35,0.619288861751556,0.500022232532501,55.3004417419434,138.91911315918,43.7264404296875,233.997,2304.998,1280.998,"Pictures_Onset",1255.001,"07","Healthy",7,60,90,3,"no","up","Right",0,"FF","FL",9,"up",676,1,"Students07"
35,0.634703755378723,0.509963035583496,62.6374053955078,136.445175170898,42.8222198486328,134.003,2570.995,1546.995,"Pictures_Onset",1520.998,"07","Healthy",7,60,90,3,"no","up","Right",0,"FF","FL",9,"up",676,1,"Students07"
35,0.637875020503998,0.513291656970978,64.2354125976562,135.63542175293,42.5308380126953,116.006,2737.997,1713.997,"Pictures_Onset",1688,"07","Healthy",7,60,90,3,"no","up","Right",0,"FF","FL",9,"up",676,1,"Students07"
36,0.370750039815903,0.485624969005585,-63.1362495422363,142.557495117188,45.0487480163574,116.007,1242.995,165.99,"Pictures_Onset",192.998,"07","Healthy",7,60,90,4,"no","up","Right",1,"FL","FF",9,"up",750,1,"Students07"
36,0.366916686296463,0.484624981880188,-64.9854202270508,142.841659545898,45.154167175293,116.007,1392.998,315.993,"Pictures_Onset",343.001,"07","Healthy",7,60,90,4,"no","up","Right",1,"FL","FF",9,"up",750,1,"Students07"
36,0.383315801620483,0.491929799318314,-57.1470108032227,140.975601196289,44.4736862182617,298.995,1543.002,465.997,"Pictures_Onset",493.005,"07","Healthy",7,60,90,4,"no","up","Right",1,"FL","FF",9,"up",750,1,"Students07"
36,0.619333326816559,0.489083290100098,55.3466644287109,141.672485351562,44.7281227111816,248.998,1925.005,848,"Pictures_Onset",875.008,"07","Salty",7,60,90,4,"no","up","Right",1,"FL","FF",9,"up",750,1,"Students07"
36,0.651376843452454,0.453188449144363,70.624641418457,150.733779907227,48.0256500244141,367.002,2224,1146.995,"Pictures_Onset",1174.003,"07","Salty",7,60,90,4,"no","up","Right",1,"FL","FF",9,"up",750,1,"Students07"
36,0.60726660490036,0.484088867902756,49.607780456543,142.94465637207,45.1902275085449,232,2640.998,1563.993,"Pictures_Onset",1591.001,"07","Salty",7,60,90,4,"no","up","Right",1,"FL","FF",9,"up",750,1,"Students07"
37,0.365000009536743,0.477333307266235,-65.8541641235352,144.654174804688,45.8131217956543,248.999,1292.006,267.008,"Pictures_Onset",242.009,"07","Salty",7,60,90,2,"no","down","Left",1,"FF","FL",10,"down",612,1,"Students07"
37,0.3701052069664,0.440403550863266,-63.4931564331055,153.957015991211,49.1994743347168,300.006,1591.002,566.004,"Pictures_Onset",541.005,"07","Salty",7,60,90,2,"no","down","Left",1,"FF","FL",10,"down",612,1,"Students07"
37,0.355156898498535,0.488843142986298,-70.6284332275391,141.767440795898,44.7631416320801,266.995,1957.005,932.007,"Pictures_Onset",907.008,"07","Salty",7,60,90,2,"no","down","Left",1,"FF","FL",10,"down",612,1,"Students07"
37,0.614177703857422,0.502133309841156,52.840446472168,138.39111328125,43.5335540771484,232.998,2290.01,1265.012,"Pictures_Onset",1240.013,"07","Healthy",7,60,90,2,"no","down","Left",1,"FF","FL",10,"down",612,1,"Students07"
37,0.643333315849304,0.496208310127258,66.7502822875977,139.873336791992,44.0730590820312,383.001,2589.005,1564.007,"Pictures_Onset",1539.008,"07","Healthy",7,60,90,2,"no","down","Left",1,"FF","FL",10,"down",612,1,"Students07"
38,0.395388871431351,0.499129623174667,-51.4405555725098,139.166839599609,43.814811706543,282.996,1340.006,248.998,"Pictures_Onset",290.009,"07","Healthy",7,60,90,3,"no","down","Left",0,"FL","FF",10,"down",707,1,"Students07"
38,0.625688850879669,0.508666634559631,58.3833351135254,136.731536865234,42.9291114807129,232.998,1706.01,615.002,"Pictures_Onset",656.013,"07","Salty",7,60,90,3,"no","down","Left",0,"FL","FF",10,"down",707,1,"Students07"
38,0.623385965824127,0.457385957241058,57.2863121032715,149.654205322266,47.6343841552734,298.995,1989.005,897.997,"Pictures_Onset",939.008,"07","Salty",7,60,90,3,"no","down","Left",0,"FL","FF",10,"down",707,1,"Students07"
38,0.652666628360748,0.46357136964798,71.2192840576172,148.076416015625,47.0592842102051,216,2338.01,1247.002,"Pictures_Onset",1288.013,"07","Salty",7,60,90,3,"no","down","Left",0,"FL","FF",10,"down",707,1,"Students07"
38,0.629562556743622,0.536312520503998,60.1897964477539,129.756469726562,40.390209197998,248.998,2605.005,1513.997,"Pictures_Onset",1555.008,"07","Salty",7,60,90,3,"no","down","Left",0,"FL","FF",10,"down",707,1,"Students07"
39,0.375642865896225,0.512142837047577,-60.8271446228027,135.873809814453,42.6166648864746,216,1270.003,249.997,"Pictures_Onset",220.006,"07","Salty",7,60,90,4,"no","up","Right",0,"FF","FL",10,"up",669,1,"Students07"
39,0.370555549860001,0.460027784109116,-63.2363891601562,148.994995117188,47.3930549621582,181.991,1620.006,600,"Pictures_Onset",570.009,"07","Salty",7,60,90,4,"no","up","Right",0,"FF","FL",10,"up",669,1,"Students07"
39,0.386642903089523,0.450285702943802,-55.6121444702148,151.467620849609,48.2921447753906,216.999,1902.003,881.997,"Pictures_Onset",852.006,"07","Salty",7,60,90,4,"no","up","Right",0,"FF","FL",10,"up",669,1,"Students07"
39,0.353589743375778,0.458948761224747,-71.2820510864258,149.290252685547,47.5005149841309,200,2152,1131.994,"Pictures_Onset",1102.003,"07","Salty",7,60,90,4,"no","up","Right",0,"FF","FL",10,"up",669,1,"Students07"
39,0.618615448474884,0.505820572376251,55.0017929077148,137.46794128418,43.1969223022461,199.987,2451.008,1431.002,"Pictures_Onset",1401.011,"07","Healthy",7,60,90,4,"no","up","Right",0,"FF","FL",10,"up",669,1,"Students07"
39,0.648897469043732,0.479282021522522,69.4346160888672,144.155899047852,45.6312828063965,199.001,2701.005,1680.999,"Pictures_Onset",1651.008,"07","Healthy",7,60,90,4,"no","up","Right",0,"FF","FL",10,"up",669,1,"Students07"
40,0.618055582046509,0.458759248256683,54.7309226989746,149.317581176758,47.5114822387695,282.995,1291.008,199.002,"Pictures_Onset",241.011,"07","Salty",7,60,90,1,"no","up","Right",1,"FL","FF",10,"up",666,1,"Students07"
40,0.628256440162659,0.490897387266159,59.5925636291504,141.209747314453,44.560001373291,200,1607.002,514.996,"Pictures_Onset",557.005,"07","Salty",7,60,90,1,"no","up","Right",1,"FL","FF",10,"up",666,1,"Students07"
40,0.626117646694183,0.431392133235931,58.556468963623,156.198837280273,50.0147094726562,266.995,1841.011,749.005,"Pictures_Onset",791.014,"07","Salty",7,60,90,1,"no","up","Right",1,"FL","FF",10,"up",666,1,"Students07"
40,0.633955597877502,0.510177731513977,62.3037757873535,136.349105834961,42.788215637207,232,2157.005,1064.999,"Pictures_Onset",1107.008,"07","Salty",7,60,90,1,"no","up","Right",1,"FL","FF",10,"up",666,1,"Students07"
40,0.635242402553558,0.436242461204529,62.9287872314453,155.025451660156,49.5878791809082,167.001,2439.002,1346.996,"Pictures_Onset",1389.005,"07","Salty",7,60,90,1,"no","up","Right",1,"FL","FF",10,"up",666,1,"Students07"
40,0.400770843029022,0.475979149341583,-48.890625,144.982696533203,45.9314575195312,251.008,2688,1595.994,"Pictures_Onset",1638.003,"07","Healthy",7,60,90,1,"no","up","Right",1,"FL","FF",10,"up",666,1,"Students07"
41,0.384626686573029,0.501279950141907,-56.5594635009766,138.582534790039,43.6035995483398,398.004,1264.998,233.996,"Pictures_Onset",215.001,"07","Sugary",7,60,90,3,"no","up","Left",1,"FS","FL",11,"up",612,1,"Students07"
41,0.400888890028,0.461777806282043,-48.771110534668,148.595550537109,47.2466697692871,133.005,1696.998,665.996,"Pictures_Onset",647.001,"07","Sugary",7,60,90,3,"no","up","Left",1,"FS","FL",11,"up",612,1,"Students07"
41,0.63786107301712,0.522388875484467,64.162223815918,133.316390991211,41.6886100769043,182.004,1948.006,917.004,"Pictures_Onset",898.009,"07","Healthy",7,60,90,3,"no","up","Left",1,"FS","FL",11,"up",612,1,"Students07"
41,0.362333357334137,0.478933274745941,-67.2333374023438,144.255004882812,45.6683349609375,150.003,2496,1464.998,"Pictures_Onset",1446.003,"07","Sugary",7,60,90,3,"no","up","Left",1,"FS","FL",11,"up",612,1,"Students07"
41,0.385000020265579,0.4687879383564,-56.3987808227539,146.788192749023,46.5890884399414,166.003,2679.002,1648,"Pictures_Onset",1629.005,"07","Sugary",7,60,90,3,"no","up","Left",1,"FS","FL",11,"up",612,1,"Students07"
41,0.384999990463257,0.466666668653488,-56.3418998718262,147.324783325195,46.7847595214844,100.007,2878.003,1847.001,"Pictures_Onset",1828.006,"07","Sugary",7,60,90,3,"no","up","Left",1,"FS","FL",11,"up",612,1,"Students07"
42,0.376606017351151,0.512696981430054,-60.334545135498,135.765762329102,42.5760612487793,166.003,1282.01,248.999,"Pictures_Onset",232.013,"07","Healthy",7,60,90,4,"no","up","Left",0,"FL","FS",11,"up",674,1,"Students07"
42,0.403249979019165,0.526166677474976,-47.714168548584,132.387496948242,41.3487510681152,115.993,1482.01,448.999,"Pictures_Onset",432.013,"07","Healthy",7,60,90,4,"no","up","Left",0,"FL","FS",11,"up",674,1,"Students07"
42,0.626452445983887,0.486857146024704,58.6745262145996,142.263824462891,44.9421463012695,216,1681.011,648,"Pictures_Onset",631.014,"07","Sugary",7,60,90,4,"no","up","Left",0,"FL","FS",11,"up",674,1,"Students07"
42,0.631968259811401,0.444253981113434,61.350959777832,152.955062866211,48.8342819213867,331.994,1931.008,897.997,"Pictures_Onset",881.011,"07","Sugary",7,60,90,4,"no","up","Left",0,"FL","FS",11,"up",674,1,"Students07"
42,0.631057977676392,0.466768056154251,60.9402809143066,147.325225830078,46.78564453125,365.991,2297.011,1264,"Pictures_Onset",1247.014,"07","Sugary",7,60,90,4,"no","up","Left",0,"FL","FS",11,"up",674,1,"Students07"
42,0.625583291053772,0.427499979734421,58.2547950744629,157.181259155273,50.3712501525879,249.997,2696.013,1663.002,"Pictures_Onset",1646.016,"07","Sugary",7,60,90,4,"no","up","Left",0,"FL","FS",11,"up",674,1,"Students07"
43,0.382484823465347,0.51348489522934,-57.5169715881348,135.544555664062,42.4975738525391,166.003,1313.997,282.995,"Pictures_Onset",264,"07","Sugary",7,60,90,1,"no","down","Right",0,"FS","FL",11,"down",804,1,"Students07"
43,0.380458325147629,0.487958371639252,-58.5179138183594,141.999176025391,44.845832824707,116.006,1513.997,482.995,"Pictures_Onset",464,"07","Sugary",7,60,90,1,"no","down","Right",0,"FS","FL",11,"down",804,1,"Students07"
43,0.385407418012619,0.441111117601395,-56.2192573547363,153.73518371582,49.1174087524414,133.005,1664,632.998,"Pictures_Onset",614.003,"07","Sugary",7,60,90,1,"no","down","Right",0,"FS","FL",11,"down",804,1,"Students07"
43,0.368422210216522,0.407111167907715,-64.2504425048828,162.331558227539,52.2468872070312,233.011,1929.997,898.995,"Pictures_Onset",880,"07","Sugary",7,60,90,1,"no","down","Right",0,"FS","FL",11,"down",804,1,"Students07"
43,0.364777803421021,0.461472272872925,-66.0216598510742,148.596664428711,47.2483329772949,182.003,2263.002,1232,"Pictures_Onset",1213.005,"07","Sugary",7,60,90,1,"no","down","Right",0,"FS","FL",11,"down",804,1,"Students07"
43,0.632564127445221,0.490871787071228,61.5666580200195,141.247451782227,44.5725631713867,200,2728.998,1697.996,"Pictures_Onset",1679.001,"07","Healthy",7,60,90,1,"no","down","Right",0,"FS","FL",11,"down",804,1,"Students07"
44,0.380319476127625,0.498236089944839,-58.6245880126953,139.372085571289,43.8894462585449,384,1241.997,216,"Pictures_Onset",192,"07","Healthy",7,60,90,2,"no","down","Right",1,"FL","FS",11,"down",646,1,"Students07"
44,0.58441025018692,0.517512857913971,38.7143592834473,134.536666870117,42.1300010681152,198.989,1725.005,699.008,"Pictures_Onset",675.008,"07","Sugary",7,60,90,2,"no","down","Right",1,"FL","FS",11,"down",646,1,"Students07"
44,0.632692337036133,0.472512781620026,61.7353782653809,145.847183227539,46.2479476928711,200,1991.002,965.005,"Pictures_Onset",941.005,"07","Sugary",7,60,90,2,"no","down","Right",1,"FL","FS",11,"down",646,1,"Students07"
44,0.627928674221039,0.439571440219879,59.4607200622559,154.152633666992,49.2695236206055,216,2224.998,1199.001,"Pictures_Onset",1175.001,"07","Sugary",7,60,90,2,"no","down","Right",1,"FL","FS",11,"down",646,1,"Students07"
44,0.611555516719818,0.470466673374176,51.5831108093262,146.39778137207,46.4484405517578,232.998,2473.997,1448,"Pictures_Onset",1424,"07","Sugary",7,60,90,2,"no","down","Right",1,"FL","FS",11,"down",646,1,"Students07"
44,0.623541712760925,0.467499971389771,57.2966651916504,147.103759765625,46.7049942016602,118.003,2739.994,1713.997,"Pictures_Onset",1689.997,"07","Sugary",7,60,90,2,"no","down","Right",1,"FL","FS",11,"down",646,1,"Students07"
45,0.367487162351608,0.486205160617828,-64.7015380859375,142.393325805664,44.98974609375,199.001,1253.005,167.002,"Pictures_Onset",203.008,"07","Sugary",7,60,90,4,"no","up","Left",1,"FS","FL",12,"up",636,1,"Students07"
45,0.361392199993134,0.454117625951767,-67.6754837036133,150.476272583008,47.931568145752,266.995,1485.005,399.002,"Pictures_Onset",435.008,"07","Sugary",7,60,90,4,"no","up","Left",1,"FS","FL",12,"up",636,1,"Students07"
45,0.368314802646637,0.44946300983429,-64.3261108398438,151.672790527344,48.3664779663086,281.997,1784.998,698.995,"Pictures_Onset",735.001,"07","Sugary",7,60,90,4,"no","up","Left",1,"FS","FL",12,"up",636,1,"Students07"
45,0.627280712127686,0.501070141792297,59.0815811157227,138.695449829102,43.6449089050293,300.007,2250.995,1164.992,"Pictures_Onset",1200.998,"07","Healthy",7,60,90,4,"no","up","Left",1,"FS","FL",12,"up",636,1,"Students07"
45,0.636124968528748,0.47991669178009,63.3325004577637,143.967071533203,45.5627136230469,248.998,2584,1497.997,"Pictures_Onset",1534.003,"07","Healthy",7,60,90,4,"no","up","Left",1,"FS","FL",12,"up",636,1,"Students07"
45,0.600333333015442,0.465000003576279,46.2612533569336,147.785003662109,46.9533348083496,117.005,2865.997,1779.994,"Pictures_Onset",1816,"07","Healthy",7,60,90,4,"no","up","Left",1,"FS","FL",12,"up",636,1,"Students07"
46,0.365104168653488,0.496958345174789,-65.8974990844727,139.712905883789,44.013542175293,249.997,1275.008,249.011,"Pictures_Onset",225.011,"07","Healthy",7,60,90,1,"no","up","Left",0,"FL","FS",12,"up",630,1,"Students07"
46,0.37746673822403,0.455920070409775,-59.9689292907715,150.017181396484,47.7642669677734,399.002,1558.003,532.006,"Pictures_Onset",508.006,"07","Healthy",7,60,90,1,"no","up","Left",0,"FL","FS",12,"up",630,1,"Students07"
46,0.617884039878845,0.453739166259766,54.6595611572266,150.580291748047,47.9695663452148,366.003,2040,1014.003,"Pictures_Onset",990.003,"07","Sugary",7,60,90,1,"no","up","Left",0,"FL","FS",12,"up",630,1,"Students07"
46,0.629392147064209,0.449058771133423,60.1029357910156,151.793930053711,48.4119567871094,265.997,2440,1414.003,"Pictures_Onset",1390.003,"07","Sugary",7,60,90,1,"no","up","Left",0,"FL","FS",12,"up",630,1,"Students07"
46,0.624799966812134,0.451711058616638,57.9664459228516,151.108657836914,48.1617813110352,233.997,2739.008,1713.011,"Pictures_Onset",1689.011,"07","Sugary",7,60,90,1,"no","up","Left",0,"FL","FS",12,"up",630,1,"Students07"
47,0.607777774333954,0.486611157655716,49.8177757263184,142.296691894531,44.9542579650879,281.997,1262.003,232,"Pictures_Onset",212.006,"07","Healthy",7,60,90,2,"no","down","Right",0,"FS","FL",12,"down",637,1,"Students07"
47,0.625888884067535,0.485904783010483,58.4447593688965,142.469512939453,45.018253326416,333.005,1577.997,547.994,"Pictures_Onset",528,"07","Healthy",7,60,90,2,"no","down","Right",0,"FS","FL",12,"down",637,1,"Students07"
47,0.366882413625717,0.475980371236801,-65.0088195800781,144.992752075195,45.9358825683594,267.008,1993.997,963.994,"Pictures_Onset",944,"07","Sugary",7,60,90,2,"no","down","Right",0,"FS","FL",12,"down",637,1,"Students07"
47,0.372512847185135,0.449564099311829,-62.3743667602539,151.667449951172,48.3651313781738,200,2293.005,1263.002,"Pictures_Onset",1243.008,"07","Sugary",7,60,90,2,"no","down","Right",0,"FS","FL",12,"down",637,1,"Students07"
47,0.364923059940338,0.455679535865784,-65.9328308105469,150.097427368164,47.793586730957,414.003,2528,1497.997,"Pictures_Onset",1478.003,"07","Sugary",7,60,90,2,"no","down","Right",0,"FS","FL",12,"down",637,1,"Students07"
48,0.360925942659378,0.493629604578018,-67.8025970458984,140.524826049805,44.3085174560547,134.003,1317.005,281.997,"Pictures_Onset",267.008,"07","Healthy",7,60,90,3,"no","down","Right",1,"FL","FS",12,"down",731,1,"Students07"
48,0.618212103843689,0.472136378288269,54.7975730895996,145.998321533203,46.3028793334961,350.003,1533.005,497.997,"Pictures_Onset",483.008,"07","Sugary",7,60,90,3,"no","down","Right",1,"FL","FS",12,"down",731,1,"Students07"
48,0.606944382190704,0.472638934850693,49.3777809143066,145.854995727539,46.2497215270996,184,1916.006,880.998,"Pictures_Onset",866.009,"07","Sugary",7,60,90,3,"no","down","Right",1,"FL","FS",12,"down",731,1,"Students07"
48,0.383871823549271,0.498846173286438,-56.9628219604492,139.196929931641,43.825382232666,200,2183.002,1147.994,"Pictures_Onset",1133.005,"07","Healthy",7,60,90,3,"no","down","Right",1,"FL","FS",12,"down",731,1,"Students07"
48,0.603407442569733,0.471296310424805,47.7429656982422,146.162216186523,46.3618507385254,133.005,2465.997,1430.989,"Pictures_Onset",1416,"07","Sugary",7,60,90,3,"no","down","Right",1,"FL","FS",12,"down",731,1,"Students07"
48,0.625079333782196,0.473285734653473,58.0471382141113,145.640167236328,46.1712646484375,332.007,2648.998,1613.99,"Pictures_Onset",1599.001,"07","Sugary",7,60,90,3,"no","down","Right",1,"FL","FS",12,"down",731,1,"Students07"
49,0.373952388763428,0.491214275360107,-61.6969032287598,141.137619018555,44.5321388244629,216,1232.998,199.001,"Pictures_Onset",183.001,"07","Sugary",7,60,90,1,"no","up","Left",1,"FS","FL",13,"up",663,1,"Students07"
49,0.372666656970978,0.497233301401138,-62.3033332824707,139.694671630859,44.0076637268066,149.005,1482.995,448.998,"Pictures_Onset",432.998,"07","Sugary",7,60,90,1,"no","up","Left",1,"FS","FL",13,"up",663,1,"Students07"
49,0.598481476306915,0.481740742921829,45.4718475341797,143.510360717773,45.3974075317383,131.993,1715.994,681.997,"Pictures_Onset",665.997,"07","Healthy",7,60,90,1,"no","up","Left",1,"FS","FL",13,"up",663,1,"Students07"
49,0.613833367824554,0.50775009393692,52.7414512634277,136.96728515625,43.015209197998,515.993,1881.997,848,"Pictures_Onset",832,"07","Healthy",7,60,90,1,"no","up","Left",1,"FS","FL",13,"up",663,1,"Students07"
49,0.603200018405914,0.540766656398773,47.6809997558594,128.683334350586,39.9993362426758,150.003,2430.989,1396.992,"Pictures_Onset",1380.992,"07","Healthy",7,60,90,1,"no","up","Left",1,"FS","FL",13,"up",663,1,"Students07"
49,0.404100000858307,0.451016664505005,-47.3263320922852,151.270324707031,48.2190017700195,314.996,2664.998,1631.001,"Pictures_Onset",1615.001,"07","Sugary",7,60,90,1,"no","up","Left",1,"FS","FL",13,"up",663,1,"Students07"
50,0.381712138652802,0.498424232006073,-57.9310569763184,139.337265014648,43.8777313232422,349.005,1233.997,216,"Pictures_Onset",184,"07","Healthy",7,60,90,2,"no","up","Left",0,"FL","FS",13,"up",607,1,"Students07"
50,0.393888890743256,0.545629620552063,-52.1781463623047,127.476669311523,39.5618515014648,134.004,1616.998,599.001,"Pictures_Onset",567.001,"07","Healthy",7,60,90,2,"no","up","Left",0,"FL","FS",13,"up",607,1,"Students07"
50,0.626529335975647,0.485333383083344,58.768238067627,142.620590209961,45.0723571777344,265.997,1816,798.003,"Pictures_Onset",766.003,"07","Sugary",7,60,90,2,"no","up","Left",0,"FL","FS",13,"up",607,1,"Students07"
50,0.637848436832428,0.513848483562469,64.1736297607422,135.446365356445,42.4603004455566,164.992,2150.003,1132.006,"Pictures_Onset",1100.006,"07","Sugary",7,60,90,2,"no","up","Left",0,"FL","FS",13,"up",607,1,"Students07"
50,0.39315739274025,0.523750066757202,-52.5191650390625,132.95100402832,41.5530548095703,582.003,2399.002,1381.005,"Pictures_Onset",1349.005,"07","Healthy",7,60,90,2,"no","up","Left",0,"FL","FS",13,"up",607,1,"Students07"
51,0.383083313703537,0.493166625499725,-57.3133316040039,140.683746337891,44.3666648864746,250.009,1334.989,315.994,"Pictures_Onset",284.992,"07","Sugary",7,60,90,3,"no","down","Right",0,"FS","FL",13,"down",667,1,"Students07"
51,0.412757575511932,0.510090887546539,-43.1593971252441,136.403945922852,42.8078765869141,165.99,1633.997,615.002,"Pictures_Onset",584,"07","Sugary",7,60,90,3,"no","down","Right",0,"FS","FL",13,"down",667,1,"Students07"
51,0.598527729511261,0.503805577754974,45.3580589294434,137.993621826172,43.3880577087402,183.001,1883.994,864.999,"Pictures_Onset",833.997,"07","Healthy",7,60,90,3,"no","down","Right",0,"FS","FL",13,"down",667,1,"Students07"
51,0.615794837474823,0.52551281452179,53.6030807495117,132.521026611328,41.3958969116211,199.002,2100.992,1081.997,"Pictures_Onset",1050.995,"07","Healthy",7,60,90,3,"no","down","Right",0,"FS","FL",13,"down",667,1,"Students07"
51,0.617571413516998,0.534095227718353,54.4438095092773,130.346206665039,40.6047630310059,100.006,2332.992,1313.997,"Pictures_Onset",1282.995,"07","Healthy",7,60,90,3,"no","down","Right",0,"FS","FL",13,"down",667,1,"Students07"
51,0.600111126899719,0.52737033367157,46.1285209655762,132.034454345703,41.2188873291016,131.994,2466.995,1448,"Pictures_Onset",1416.998,"07","Healthy",7,60,90,3,"no","down","Right",0,"FS","FL",13,"down",667,1,"Students07"
51,0.601518511772156,0.52700001001358,46.8288841247559,132.165557861328,41.2681503295898,133.991,2632.998,1614.003,"Pictures_Onset",1583.001,"07","Healthy",7,60,90,3,"no","down","Right",0,"FS","FL",13,"down",667,1,"Students07"
51,0.595740735530853,0.531925916671753,44.1151885986328,130.917770385742,40.8122215270996,133.005,2798.989,1779.994,"Pictures_Onset",1748.992,"07","Healthy",7,60,90,3,"no","down","Right",0,"FS","FL",13,"down",667,1,"Students07"
52,0.375595241785049,0.509261906147003,-60.894287109375,136.60856628418,42.8838119506836,216.999,1316.006,281.996,"Pictures_Onset",266.009,"07","Healthy",7,60,90,4,"no","down","Right",1,"FL","FS",13,"down",657,1,"Students07"
52,0.395185172557831,0.532407462596893,-51.538890838623,130.759994506836,40.7570343017578,133.004,1567.002,532.992,"Pictures_Onset",517.005,"07","Healthy",7,60,90,4,"no","down","Right",1,"FL","FS",13,"down",657,1,"Students07"
52,0.395222216844559,0.537999987602234,-51.4270401000977,129.380004882812,40.254810333252,133.005,1733.005,698.995,"Pictures_Onset",683.008,"07","Healthy",7,60,90,4,"no","down","Right",1,"FL","FS",13,"down",657,1,"Students07"
52,0.626166701316833,0.472645819187164,58.5489616394043,145.801452636719,46.2295799255371,249.997,1949.005,914.995,"Pictures_Onset",899.008,"07","Sugary",7,60,90,4,"no","down","Right",1,"FL","FS",13,"down",657,1,"Students07"
52,0.640823543071747,0.495000064373016,65.5392227172852,140.192352294922,44.1896095275879,266.995,2232.013,1198.003,"Pictures_Onset",1182.016,"07","Sugary",7,60,90,4,"no","down","Right",1,"FL","FS",13,"down",657,1,"Students07"
52,0.632960796356201,0.516901969909668,61.8094139099121,134.693923950195,42.188232421875,266.995,2531.008,1496.998,"Pictures_Onset",1481.011,"07","Sugary",7,60,90,4,"no","down","Right",1,"FL","FS",13,"down",657,1,"Students07"
52,0.630333364009857,0.434629619121552,60.6122245788574,155.396301269531,49.7214813232422,132.006,2848,1813.99,"Pictures_Onset",1798.003,"07","Sugary",7,60,90,4,"no","down","Right",1,"FL","FS",13,"down",657,1,"Students07"
53,0.378733336925507,0.503688871860504,-59.3415603637695,138.025100708008,43.4004440307617,232.013,1260.992,231.987,"Pictures_Onset",210.995,"07","Sugary",7,60,90,2,"no","up","Left",1,"FS","FL",14,"up",758,1,"Students07"
53,0.39466667175293,0.516529500484467,-51.7521591186523,134.778625488281,42.2196083068848,264.998,1528,498.995,"Pictures_Onset",478.003,"07","Sugary",7,60,90,2,"no","up","Left",1,"FS","FL",14,"up",758,1,"Students07"
53,0.334568649530411,0.481019586324692,-80.4337158203125,143.74821472168,45.4833335876465,267.008,1859.994,830.989,"Pictures_Onset",809.997,"07","Sugary",7,60,90,2,"no","up","Left",1,"FS","FL",14,"up",758,1,"Students07"
53,0.400088906288147,0.453511118888855,-49.181999206543,150.6435546875,47.9928855895996,232.999,2176.998,1147.993,"Pictures_Onset",1127.001,"07","Sugary",7,60,90,2,"no","up","Left",1,"FS","FL",14,"up",758,1,"Students07"
53,0.383888870477676,0.474555611610413,-56.9366645812988,145.358139038086,46.0696296691895,131.994,2726.003,1696.998,"Pictures_Onset",1676.006,"07","Sugary",7,60,90,2,"no","up","Left",1,"FS","FL",14,"up",758,1,"Students07"
54,0.621199905872345,0.516600012779236,56.230884552002,134.810882568359,42.2293319702148,232.998,1293.005,267.008,"Pictures_Onset",243.008,"07","Sugary",7,60,90,3,"no","up","Left",0,"FL","FS",14,"up",723,1,"Students07"
54,0.647166609764099,0.548466682434082,68.5559997558594,126.730667114258,39.2900009155273,149.005,1560,534.003,"Pictures_Onset",510.003,"07","Sugary",7,60,90,3,"no","up","Left",0,"FL","FS",14,"up",723,1,"Students07"
54,0.652642786502838,0.551999926567078,71.2854766845703,125.842147827148,38.966667175293,216,1743.002,717.005,"Pictures_Onset",693.005,"07","Sugary",7,60,90,3,"no","up","Left",0,"FL","FS",14,"up",723,1,"Students07"
54,0.666969656944275,0.525999963283539,78.0187911987305,132.406677246094,41.3539390563965,167.002,1992,966.003,"Pictures_Onset",942.003,"07","Sugary",7,60,90,3,"no","up","Left",0,"FL","FS",14,"up",723,1,"Students07"
54,0.608444452285767,0.466074109077454,50.0748138427734,147.512222290039,46.8525924682617,132.992,2275.008,1249.011,"Pictures_Onset",1225.011,"07","Sugary",7,60,90,3,"no","up","Left",0,"FL","FS",14,"up",723,1,"Students07"
54,0.391458332538605,0.493416666984558,-53.341667175293,140.609588623047,44.3400039672852,117.005,2473.997,1448,"Pictures_Onset",1424,"07","Healthy",7,60,90,3,"no","up","Left",0,"FL","FS",14,"up",723,1,"Students07"
54,0.392266660928726,0.512133240699768,-52.9455032348633,135.875671386719,42.6198348999023,150.334333333334,2823.66866666667,1831.66766666667,"Pictures_Onset",1807.66766666667,"07","Healthy",7,60,90,3,"no","up","Left",0,"FL","FS",14,"up",723,1,"Students07"
55,0.379564106464386,0.498589783906937,-58.970516204834,139.261260986328,43.8497467041016,200,1242.995,216.998,"Pictures_Onset",192.998,"07","Sugary",7,60,90,4,"no","down","Right",0,"FS","FL",14,"down",622,1,"Students07"
55,0.395649969577789,0.518183350563049,-51.3543319702148,134.366333007812,42.0673332214355,317.005,1474.995,448.998,"Pictures_Onset",424.998,"07","Sugary",7,60,90,4,"no","down","Right",0,"FS","FL",14,"down",622,1,"Students07"
55,0.399549067020416,0.53201961517334,-49.4127502441406,130.852737426758,40.7892150878906,266.996,1824.998,799.001,"Pictures_Onset",775.001,"07","Sugary",7,60,90,4,"no","down","Right",0,"FS","FL",14,"down",622,1,"Students07"
55,0.331277757883072,0.482250064611435,-81.9697265625,143.429443359375,45.3655586242676,184,2156.992,1130.995,"Pictures_Onset",1106.995,"07","Sugary",7,60,90,4,"no","down","Right",0,"FS","FL",14,"down",622,1,"Students07"
55,0.397833287715912,0.445333331823349,-50.2046699523926,152.686340332031,48.7353324890137,151.002,2405.99,1379.993,"Pictures_Onset",1355.993,"07","Sugary",7,60,90,4,"no","down","Right",0,"FS","FL",14,"down",622,1,"Students07"
55,0.414842069149017,0.460017591714859,-42.1945648193359,148.994918823242,47.3935050964355,298.995,2591.002,1565.005,"Pictures_Onset",1541.005,"07","Sugary",7,60,90,4,"no","down","Right",0,"FS","FL",14,"down",622,1,"Students07"
56,0.368703693151474,0.4787777364254,-64.1269226074219,144.3125,45.6882743835449,433.997,1252.006,215.001,"Pictures_Onset",202.009,"07","Healthy",7,60,90,1,"no","down","Right",1,"FL","FS",14,"down",700,1,"Students07"
56,0.387999981641769,0.488851875066757,-54.9796295166016,141.738128662109,44.7525939941406,133.004,1719.002,681.997,"Pictures_Onset",669.005,"07","Healthy",7,60,90,1,"no","down","Right",1,"FL","FS",14,"down",700,1,"Students07"
56,0.615939378738403,0.510636389255524,53.6557579040527,136.205154418945,42.7393913269043,165.005,1936,898.995,"Pictures_Onset",886.003,"07","Sugary",7,60,90,1,"no","down","Right",1,"FL","FS",14,"down",700,1,"Students07"
56,0.650352954864502,0.506490230560303,70.0619506835938,137.303115844727,43.1368637084961,265.996,2151.002,1113.997,"Pictures_Onset",1101.005,"07","Sugary",7,60,90,1,"no","down","Right",1,"FL","FS",14,"down",700,1,"Students07"
56,0.37264096736908,0.480307698249817,-62.2479476928711,143.906143188477,45.5410308837891,200,2600.998,1563.993,"Pictures_Onset",1551.001,"07","Healthy",7,60,90,1,"no","down","Right",1,"FL","FS",14,"down",700,1,"Students07"
56,0.359999984502792,0.433777809143066,-68.3011093139648,155.625183105469,49.804443359375,133.99,2850.01,1813.005,"Pictures_Onset",1800.013,"07","Healthy",7,60,90,1,"no","down","Right",1,"FL","FS",14,"down",700,1,"Students07"
57,0.393683344125748,0.501500010490417,-52.2476692199707,138.581161499023,43.6038360595703,315.994,1251.008,150.003,"Pictures_Onset",201.011,"07","Sugary",7,60,90,3,"no","up","Left",1,"FS","FL",15,"up",954,1,"Students07"
57,0.621727228164673,0.492272734642029,56.4866676330566,140.912719726562,44.4503021240234,166.988,1650.01,549.005,"Pictures_Onset",600.013,"07","Healthy",7,60,90,3,"no","up","Left",1,"FS","FL",15,"up",954,1,"Students07"
57,0.641621172428131,0.524606108665466,65.9280319213867,132.74787902832,41.4783363342285,350.004,1848.998,747.993,"Pictures_Onset",799.001,"07","Healthy",7,60,90,3,"no","up","Left",1,"FS","FL",15,"up",954,1,"Students07"
57,0.384564101696014,0.483205109834671,-56.6459007263184,143.150009155273,45.2661552429199,200,2282.01,1181.005,"Pictures_Onset",1232.013,"07","Sugary",7,60,90,3,"no","up","Left",1,"FS","FL",15,"up",954,1,"Students07"
57,0.404392063617706,0.491274505853653,-47.0915718078613,141.125305175781,44.5284271240234,265.997,2516.006,1415.001,"Pictures_Onset",1466.009,"07","Sugary",7,60,90,3,"no","up","Left",1,"FS","FL",15,"up",954,1,"Students07"
58,0.389333337545395,0.495357125997543,-54.3085670471191,140.099761962891,44.1554756164551,216,1293.99,264.998,"Pictures_Onset",243.993,"07","Healthy",7,60,90,4,"no","up","Left",0,"FL","FS",15,"up",611,1,"Students07"
58,0.374925941228867,0.509777784347534,-61.1644439697266,136.464431762695,42.8333358764648,134.988,1543.002,514.01,"Pictures_Onset",493.005,"07","Healthy",7,60,90,4,"no","up","Left",0,"FL","FS",15,"up",611,1,"Students07"
58,0.632841348648071,0.485841304063797,61.707462310791,142.502075195312,45.0299987792969,332.992,1760,731.008,"Pictures_Onset",710.003,"07","Sugary",7,60,90,4,"no","up","Left",0,"FL","FS",15,"up",611,1,"Students07"
58,0.602055490016937,0.487074047327042,47.0529632568359,142.182586669922,44.9131469726562,283.993,2241.997,1213.005,"Pictures_Onset",1192,"07","Sugary",7,60,90,4,"no","up","Left",0,"FL","FS",15,"up",611,1,"Students07"
58,0.59553337097168,0.492833316326141,43.9709968566895,140.787338256836,44.4063339233398,150.003,2558.989,1529.997,"Pictures_Onset",1508.992,"07","Sugary",7,60,90,4,"no","up","Left",0,"FL","FS",15,"up",611,1,"Students07"
58,0.371638894081116,0.496694445610046,-62.747501373291,139.808334350586,44.0486145019531,184,2792,1763.008,"Pictures_Onset",1742.003,"07","Healthy",7,60,90,4,"no","up","Left",0,"FL","FS",15,"up",611,1,"Students07"
59,0.376509755849838,0.481176435947418,-60.4978370666504,143.669036865234,45.4551010131836,266.995,1283.008,199.002,"Pictures_Onset",233.011,"07","Sugary",7,60,90,1,"no","down","Right",0,"FS","FL",15,"down",620,1,"Students07"
59,0.39127779006958,0.467305541038513,-53.4361114501953,147.213882446289,46.7444458007812,182.003,1584,499.994,"Pictures_Onset",534.003,"07","Sugary",7,60,90,1,"no","down","Right",0,"FS","FL",15,"down",620,1,"Students07"
59,0.615547657012939,0.477380961179733,53.4997673034668,144.635223388672,45.8057174682617,217.012,1832.998,748.992,"Pictures_Onset",783.001,"07","Healthy",7,60,90,1,"no","down","Right",0,"FS","FL",15,"down",620,1,"Students07"
59,0.630454540252686,0.497575759887695,60.6327285766602,139.567565917969,43.9630317687988,165.99,2083.008,999.002,"Pictures_Onset",1033.011,"07","Healthy",7,60,90,1,"no","down","Right",0,"FS","FL",15,"down",620,1,"Students07"
59,0.592666685581207,0.499076873064041,42.6523056030273,139.171295166016,43.8171806335449,200.013,2281.997,1197.991,"Pictures_Onset",1232,"07","Healthy",7,60,90,1,"no","down","Right",0,"FS","FL",15,"down",620,1,"Students07"
59,0.639210522174835,0.479508757591248,64.79052734375,144.134918212891,45.6233329772949,298.995,2549.005,1464.999,"Pictures_Onset",1499.008,"07","Healthy",7,60,90,1,"no","down","Right",0,"FS","FL",15,"down",620,1,"Students07"
60,0.645866632461548,0.47013333439827,67.9959945678711,146.460220336914,46.4717750549316,232.998,1373.005,349.005,"Pictures_Onset",323.008,"07","Sugary",7,60,90,2,"no","down","Right",1,"FL","FS",15,"down",639,1,"Students07"
60,0.629571497440338,0.475309550762177,60.118091583252,145.154525756836,45.9952392578125,216,1639.002,615.002,"Pictures_Onset",589.005,"07","Sugary",7,60,90,2,"no","down","Right",1,"FL","FS",15,"down",639,1,"Students07"
60,0.604222238063812,0.47922220826149,48.1122245788574,144.194717407227,45.6455535888672,184,1888,864,"Pictures_Onset",838.003,"07","Sugary",7,60,90,2,"no","down","Right",1,"FL","FS",15,"down",639,1,"Students07"
60,0.393925935029984,0.476703703403473,-52.1796264648438,144.790740966797,45.8625946044922,134.003,2153.997,1129.997,"Pictures_Onset",1104,"07","Healthy",7,60,90,2,"no","down","Right",1,"FL","FS",15,"down",639,1,"Students07"
60,0.380242377519608,0.509151518344879,-58.6430320739746,136.633636474609,42.8945426940918,165.005,2321.997,1297.997,"Pictures_Onset",1272,"07","Healthy",7,60,90,2,"no","down","Right",1,"FL","FS",15,"down",639,1,"Students07"
60,0.349333316087723,0.486857116222382,-73.3619003295898,142.247619628906,44.9385681152344,100.007,2536.998,1512.998,"Pictures_Onset",1487.001,"07","Healthy",7,60,90,2,"no","down","Right",1,"FL","FS",15,"down",639,1,"Students07"
60,0.610000014305115,0.473142892122269,50.8795280456543,145.706405639648,46.1942863464355,215.002,2770.995,1746.995,"Pictures_Onset",1720.998,"07","Sugary",7,60,90,2,"no","down","Right",1,"FL","FS",15,"down",639,1,"Students07"
61,0.378666698932648,0.507555544376373,-59.3766670227051,137.013565063477,43.0315589904785,234.009,1297.997,264.999,"Pictures_Onset",248,"07","Sugary",7,60,90,4,"no","down","Left",1,"FS","FL",16,"down",654,1,"Students07"
61,0.410583317279816,0.503270864486694,-44.1983337402344,138.120849609375,43.4356269836426,248.998,1565.005,532.007,"Pictures_Onset",515.008,"07","Sugary",7,60,90,4,"no","down","Left",1,"FS","FL",16,"down",654,1,"Students07"
61,0.359925895929337,0.500314831733704,-68.2811050415039,138.885375976562,43.7120361328125,283.008,1864,831.002,"Pictures_Onset",814.003,"07","Sugary",7,60,90,4,"no","down","Left",1,"FS","FL",16,"down",654,1,"Students07"
61,0.390333324670792,0.513222277164459,-53.8248138427734,135.617034912109,42.5229606628418,133.99,2197.005,1164.007,"Pictures_Onset",1147.008,"07","Sugary",7,60,90,4,"no","down","Left",1,"FS","FL",16,"down",654,1,"Students07"
61,0.419900000095367,0.506600022315979,-39.7603340148926,137.251327514648,43.117000579834,150.003,2430.003,1397.005,"Pictures_Onset",1380.006,"07","Sugary",7,60,90,4,"no","down","Left",1,"FS","FL",16,"down",654,1,"Students07"
61,0.617099940776825,0.497933328151703,54.2558364868164,139.488647460938,43.9324951171875,317.004,2663.002,1630.004,"Pictures_Onset",1613.005,"07","Healthy",7,60,90,4,"no","down","Left",1,"FS","FL",16,"down",654,1,"Students07"
62,0.363607853651047,0.496352910995483,-66.5678405761719,139.876068115234,44.07373046875,264.998,1305.997,283.994,"Pictures_Onset",256,"07","Healthy",7,60,90,1,"no","down","Left",0,"FL","FS",16,"down",814,1,"Students07"
62,0.410916686058044,0.482374995946884,-44.0112533569336,143.365829467773,45.3450012207031,116.992,1621.005,599.002,"Pictures_Onset",571.008,"07","Healthy",7,60,90,1,"no","down","Left",0,"FL","FS",16,"down",814,1,"Students07"
62,0.425999969244003,0.498428553342819,-36.7752380371094,139.329513549805,43.8747596740723,100.007,1770.995,748.992,"Pictures_Onset",720.998,"07","Healthy",7,60,90,1,"no","down","Left",0,"FL","FS",16,"down",814,1,"Students07"
62,0.615490257740021,0.481333345174789,53.4598083496094,143.641754150391,45.443733215332,266.01,1954.995,932.992,"Pictures_Onset",904.998,"07","Sugary",7,60,90,1,"no","down","Left",0,"FL","FS",16,"down",814,1,"Students07"
62,0.634166657924652,0.493738144636154,62.4219017028809,140.52214050293,44.3092880249023,215.002,2254.003,1232,"Pictures_Onset",1204.006,"07","Sugary",7,60,90,1,"no","down","Left",0,"FL","FS",16,"down",814,1,"Students07"
62,0.608666658401489,0.485579699277878,50.1876792907715,142.564926147461,45.0515937805176,366.003,2504,1481.997,"Pictures_Onset",1454.003,"07","Sugary",7,60,90,1,"no","down","Left",0,"FL","FS",16,"down",814,1,"Students07"
63,0.367641001939774,0.497974395751953,-64.6499938964844,139.425903320312,43.9102592468262,200,1260.006,232.998,"Pictures_Onset",210.009,"07","Sugary",7,60,90,2,"no","up","Right",0,"FS","FL",16,"up",735,1,"Students07"
63,0.414714276790619,0.507166683673859,-42.2654800415039,137.113082885742,43.0688095092773,216.998,1509.005,481.997,"Pictures_Onset",459.008,"07","Sugary",7,60,90,2,"no","up","Right",0,"FS","FL",16,"up",735,1,"Students07"
63,0.626712739467621,0.485896527767181,58.882984161377,142.47802734375,45.020923614502,466.01,1808.998,781.99,"Pictures_Onset",759.001,"07","Healthy",7,60,90,2,"no","up","Right",0,"FS","FL",16,"up",735,1,"Students07"
63,0.623722195625305,0.49038890004158,57.4988899230957,141.348052978516,44.6080513000488,184,2308.006,1280.998,"Pictures_Onset",1258.009,"07","Healthy",7,60,90,2,"no","up","Right",0,"FS","FL",16,"up",735,1,"Students07"
63,0.376296281814575,0.484481543302536,-60.5599975585938,142.845733642578,45.1538848876953,281.996,2575.002,1547.994,"Pictures_Onset",1525.005,"07","Sugary",7,60,90,2,"no","up","Right",0,"FS","FL",16,"up",735,1,"Students07"
64,0.387749999761581,0.491300016641617,-55.0124931335449,141.130828857422,44.5293350219727,315.993,1263.002,166.004,"Pictures_Onset",213.005,"07","Healthy",7,60,90,3,"no","up","Right",1,"FL","FS",16,"up",741,1,"Students07"
64,0.423375010490417,0.501125037670135,-38.1037521362305,138.619995117188,43.6150016784668,116.992,1629.005,532.007,"Pictures_Onset",579.008,"07","Healthy",7,60,90,3,"no","up","Right",1,"FL","FS",16,"up",741,1,"Students07"
64,0.437222212553024,0.506777822971344,-31.4466648101807,137.220840454102,43.1075019836426,183.001,1777.997,680.999,"Pictures_Onset",728,"07","Healthy",7,60,90,3,"no","up","Right",1,"FL","FS",16,"up",741,1,"Students07"
64,0.620947360992432,0.48294734954834,56.0843811035156,143.248428344727,45.302806854248,297.997,2029.005,932.007,"Pictures_Onset",979.008,"07","Sugary",7,60,90,3,"no","up","Right",1,"FL","FS",16,"up",741,1,"Students07"
64,0.386062532663345,0.479791641235352,-55.8941688537598,144.038528442383,45.5895843505859,250.01,2410.995,1313.997,"Pictures_Onset",1360.998,"07","Healthy",7,60,90,3,"no","up","Right",1,"FL","FS",16,"up",741,1,"Students07"
64,0.427333354949951,0.497090846300125,-36.1851539611816,139.711212158203,44.0148468017578,167.002,2710.003,1613.005,"Pictures_Onset",1660.006,"07","Healthy",7,60,90,3,"no","up","Right",1,"FL","FS",16,"up",741,1,"Students07"
65,0.374861121177673,0.481055587530136,-61.1947212219238,143.711959838867,45.4694519042969,183.002,1320,283.994,"Pictures_Onset",270.003,"07","Sugary",7,60,90,1,"no","down","Left",1,"FS","FL",17,"down",665,1,"Students07"
65,0.620763838291168,0.501597225666046,55.9947319030762,138.539443969727,43.5874977111816,382.989,1585.011,549.005,"Pictures_Onset",535.014,"07","Healthy",7,60,90,1,"no","down","Left",1,"FS","FL",17,"down",665,1,"Students07"
65,0.63346141576767,0.507307708263397,62.0382080078125,137.095397949219,43.0610275268555,199.987,2001.011,965.005,"Pictures_Onset",951.014,"07","Healthy",7,60,90,1,"no","down","Left",1,"FS","FL",17,"down",665,1,"Students07"
65,0.371416658163071,0.471958339214325,-62.8108329772949,146.001251220703,46.3033294677734,116.006,2285.005,1248.999,"Pictures_Onset",1235.008,"07","Sugary",7,60,90,1,"no","down","Left",1,"FS","FL",17,"down",665,1,"Students07"
65,0.39070001244545,0.484499990940094,-53.6089973449707,142.83366394043,45.150333404541,149.005,2568,1531.994,"Pictures_Onset",1518.003,"07","Sugary",7,60,90,1,"no","down","Left",1,"FS","FL",17,"down",665,1,"Students07"
66,0.379736930131912,0.476491272449493,-58.8696479797363,144.828765869141,45.875789642334,299.994,1278.003,232,"Pictures_Onset",228.006,"07","Healthy",7,60,90,2,"no","down","Left",0,"FL","FS",17,"down",739,1,"Students07"
66,0.374153882265091,0.504358947277069,-61.5866661071777,137.857955932617,43.3400039672852,199.002,1612.006,566.003,"Pictures_Onset",562.009,"07","Healthy",7,60,90,2,"no","down","Left",0,"FL","FS",17,"down",739,1,"Students07"
66,0.616411745548248,0.511137306690216,53.902156829834,136.161178588867,42.7219581604004,265.996,1895.002,848.999,"Pictures_Onset",845.005,"07","Sugary",7,60,90,2,"no","down","Left",0,"FL","FS",17,"down",739,1,"Students07"
66,0.620848417282104,0.49139392375946,56.0121192932129,141.088180541992,44.5142402648926,166.988,2194.01,1148.007,"Pictures_Onset",1144.013,"07","Sugary",7,60,90,2,"no","down","Left",0,"FL","FS",17,"down",739,1,"Students07"
66,0.631102561950684,0.457666665315628,60.9769287109375,149.585891723633,47.6082000732422,199.001,2393.997,1347.994,"Pictures_Onset",1344,"07","Sugary",7,60,90,2,"no","down","Left",0,"FL","FS",17,"down",739,1,"Students07"
66,0.379717975854874,0.468846172094345,-58.844612121582,146.765899658203,46.5812797546387,200,2676.006,1630.003,"Pictures_Onset",1626.009,"07","Healthy",7,60,90,2,"no","down","Left",0,"FL","FS",17,"down",739,1,"Students07"
67,0.447111070156097,0.511888921260834,-26.7596340179443,135.922973632812,42.635555267334,133.991,1140.006,50.009,"Pictures_Onset",90.009,"07","Sugary",7,60,90,3,"no","up","Right",0,"FS","FL",17,"up",541,1,"Students07"
67,0.389041662216187,0.489541679620743,-54.435001373291,141.550415039062,44.6837501525879,116.007,1322.995,232.998,"Pictures_Onset",272.998,"07","Sugary",7,60,90,3,"no","up","Right",0,"FS","FL",17,"up",541,1,"Students07"
67,0.632458329200745,0.516541659832001,61.5854148864746,134.763336181641,42.2133331298828,116.992,1539.008,449.011,"Pictures_Onset",489.011,"07","Healthy",7,60,90,3,"no","up","Right",0,"FS","FL",17,"up",541,1,"Students07"
67,0.635942041873932,0.513724684715271,63.2268104553223,135.498687744141,42.4815979003906,366.004,1688.998,599.001,"Pictures_Onset",639.001,"07","Healthy",7,60,90,3,"no","up","Right",0,"FS","FL",17,"up",541,1,"Students07"
67,0.65283340215683,0.511138916015625,71.2588882446289,136.109176635742,42.7013893127441,183.002,2088.998,999.001,"Pictures_Onset",1039.001,"07","Healthy",7,60,90,3,"no","up","Right",0,"FS","FL",17,"up",541,1,"Students07"
67,0.632066667079926,0.50956666469574,61.3406677246094,136.523178100586,42.8531723022461,317.005,2304.998,1215.001,"Pictures_Onset",1255.001,"07","Healthy",7,60,90,3,"no","up","Right",0,"FS","FL",17,"up",541,1,"Students07"
68,0.387137234210968,0.476313829421997,-55.3525466918945,144.914520263672,45.9074478149414,266.995,1282.01,250.01,"Pictures_Onset",232.013,"07","Healthy",7,60,90,4,"no","up","Right",1,"FL","FS",17,"up",613,1,"Students07"
68,0.399848490953445,0.491697013378143,-49.3403053283691,140.991516113281,44.4809036254883,167.001,1581.005,549.005,"Pictures_Onset",531.008,"07","Healthy",7,60,90,4,"no","up","Right",1,"FL","FS",17,"up",613,1,"Students07"
68,0.63298487663269,0.472909152507782,61.8402976989746,145.752746582031,46.2127227783203,350.003,1830.003,798.003,"Pictures_Onset",780.006,"07","Sugary",7,60,90,4,"no","up","Right",1,"FL","FS",17,"up",613,1,"Students07"
68,0.639166653156281,0.489722162485123,64.7305603027344,141.538055419922,44.679443359375,184,2213.005,1181.005,"Pictures_Onset",1163.008,"07","Sugary",7,60,90,4,"no","up","Right",1,"FL","FS",17,"up",613,1,"Students07"
68,0.396793693304062,0.476714223623276,-50.7141304016113,144.798263549805,45.8649215698242,333.004,2479.002,1447.002,"Pictures_Onset",1429.005,"07","Healthy",7,60,90,4,"no","up","Right",1,"FL","FS",17,"up",613,1,"Students07"
68,0.38955557346344,0.496888846158981,-54.2362937927246,139.721481323242,44.017406463623,133.005,2846.003,1814.003,"Pictures_Onset",1796.006,"07","Healthy",7,60,90,4,"no","up","Right",1,"FL","FS",17,"up",613,1,"Students07"
69,0.612027764320374,0.494055509567261,51.8772239685059,140.440017700195,44.2774963378906,182.004,1288.998,200.998,"Pictures_Onset",239.001,"07","Healthy",7,60,90,2,"no","down","Left",1,"FS","FL",18,"down",605,1,"Students07"
69,0.604149878025055,0.515333294868469,48.1296653747559,135.079315185547,42.3295059204102,316.007,1504.998,416.998,"Pictures_Onset",455.001,"07","Healthy",7,60,90,2,"no","down","Left",1,"FS","FL",18,"down",605,1,"Students07"
69,0.594592571258545,0.524111092090607,43.5355567932129,132.872955322266,41.5255546569824,131.993,1855.002,767.002,"Pictures_Onset",805.005,"07","Healthy",7,60,90,2,"no","down","Left",1,"FS","FL",18,"down",605,1,"Students07"
69,0.625964939594269,0.456754386425018,58.4749031066895,149.857543945312,47.7063140869141,299.993,2037.005,949.005,"Pictures_Onset",987.008,"07","Healthy",7,60,90,2,"no","down","Left",1,"FS","FL",18,"down",605,1,"Students07"
69,0.376058846712112,0.501451015472412,-60.646858215332,138.570190429688,43.5990180969238,266.996,2436.006,1348.006,"Pictures_Onset",1386.009,"07","Sugary",7,60,90,2,"no","down","Left",1,"FS","FL",18,"down",605,1,"Students07"
69,0.39847919344902,0.497645825147629,-49.942081451416,139.514373779297,43.9422912597656,248.998,2736,1648,"Pictures_Onset",1686.003,"07","Sugary",7,60,90,2,"no","down","Left",1,"FS","FL",18,"down",605,1,"Students07"
70,0.364033371210098,0.515816628932953,-66.3719940185547,134.951995849609,42.2809982299805,316.006,1281.997,249.997,"Pictures_Onset",232,"07","Healthy",7,60,90,3,"no","down","Left",0,"FL","FS",18,"down",703,1,"Students07"
70,0.638899981975555,0.501816630363464,64.6548309326172,138.466659545898,43.5618362426758,316.007,1714.995,682.995,"Pictures_Onset",664.998,"07","Sugary",7,60,90,3,"no","down","Left",0,"FL","FS",18,"down",703,1,"Students07"
70,0.383650720119476,0.51373016834259,-57.0219039916992,135.491912841797,42.4779357910156,332.006,2113.997,1081.997,"Pictures_Onset",1064,"07","Healthy",7,60,90,3,"no","down","Left",0,"FL","FS",18,"down",703,1,"Students07"
70,0.605051279067993,0.527538537979126,48.4710235595703,131.987182617188,41.2020492553711,200,2778.995,1746.995,"Pictures_Onset",1728.998,"07","Sugary",7,60,90,3,"no","down","Left",0,"FL","FS",18,"down",703,1,"Students07"
71,0.399307727813721,0.498948723077774,-49.5802574157715,139.215911865234,43.8330726623535,200,1281.997,248.999,"Pictures_Onset",232,"07","Sugary",7,60,90,4,"no","up","Right",0,"FS","FL",18,"up",637,1,"Students07"
71,0.390035063028336,0.449684232473373,-54.0082511901855,151.578063964844,48.3319320678711,298.995,1514.995,481.997,"Pictures_Onset",464.998,"07","Sugary",7,60,90,4,"no","up","Right",0,"FS","FL",18,"up",637,1,"Students07"
71,0.616999983787537,0.523433327674866,54.229663848877,133.025497436523,41.5806655883789,316.992,1896.998,864,"Pictures_Onset",847.001,"07","Healthy",7,60,90,4,"no","up","Right",0,"FS","FL",18,"up",637,1,"Students07"
71,0.604682505130768,0.520730197429657,48.3449172973633,133.720336914062,41.8338088989258,334.004,2245.99,1212.992,"Pictures_Onset",1195.993,"07","Healthy",7,60,90,4,"no","up","Right",0,"FS","FL",18,"up",637,1,"Students07"
71,0.366458356380463,0.491499990224838,-65.2016677856445,141.08625793457,44.5149993896484,116.992,2745.997,1712.999,"Pictures_Onset",1696,"07","Sugary",7,60,90,4,"no","up","Right",0,"FS","FL",18,"up",637,1,"Students07"
72,0.366133362054825,0.504822194576263,-65.3782196044922,137.751770019531,43.3015556335449,232,1259.008,150.003,"Pictures_Onset",209.011,"07","Healthy",7,60,90,1,"no","up","Right",1,"FL","FS",18,"up",587,1,"Students07"
72,0.394400000572205,0.52783328294754,-51.9399948120117,131.932006835938,41.1830024719238,150.004,1524.006,415.001,"Pictures_Onset",474.009,"07","Healthy",7,60,90,1,"no","up","Right",1,"FL","FS",18,"up",587,1,"Students07"
72,0.65197765827179,0.499777734279633,70.9015579223633,138.999328613281,43.7542190551758,232,1758.003,648.998,"Pictures_Onset",708.006,"07","Sugary",7,60,90,1,"no","up","Right",1,"FL","FS",18,"up",587,1,"Students07"
72,0.618789494037628,0.496526330709457,55.068244934082,139.805953979492,44.048942565918,299.008,2040.998,931.993,"Pictures_Onset",991.001,"07","Sugary",7,60,90,1,"no","up","Right",1,"FL","FS",18,"up",587,1,"Students07"
72,0.600833356380463,0.50843334197998,46.5469970703125,136.809661865234,42.9583320617676,150.003,2373.005,1264,"Pictures_Onset",1323.008,"07","Sugary",7,60,90,1,"no","up","Right",1,"FL","FS",18,"up",587,1,"Students07"
72,0.355016678571701,0.503066658973694,-70.6716690063477,138.187835693359,43.4593315124512,317.005,2606.003,1496.998,"Pictures_Onset",1556.006,"07","Healthy",7,60,90,1,"no","up","Right",1,"FL","FS",18,"up",587,1,"Students07"
73,0.631561398506165,0.526807010173798,61.1100044250488,132.197387695312,41.2803497314453,297.997,1317.005,282.995,"Pictures_Onset",267.008,"07","Healthy",7,60,90,3,"no","down","Left",1,"FS","FL",19,"down",612,1,"Students07"
73,0.394717901945114,0.505666732788086,-51.709228515625,137.506164550781,43.211540222168,200,1699.008,664.998,"Pictures_Onset",649.011,"07","Sugary",7,60,90,3,"no","down","Left",1,"FS","FL",19,"down",612,1,"Students07"
73,0.419362366199493,0.491202890872955,-39.9855041503906,141.147827148438,44.5371055603027,366.004,1932.006,897.996,"Pictures_Onset",882.009,"07","Sugary",7,60,90,3,"no","down","Left",1,"FS","FL",19,"down",612,1,"Students07"
73,0.331754326820374,0.496263146400452,-81.7929840087891,139.883148193359,44.075080871582,300.007,2348.006,1313.996,"Pictures_Onset",1298.009,"07","Sugary",7,60,90,3,"no","down","Left",1,"FS","FL",19,"down",612,1,"Students07"
73,0.382777810096741,0.501388847827911,-57.396858215332,138.597961425781,43.6075897216797,282.995,2697.011,1663.001,"Pictures_Onset",1647.014,"07","Sugary",7,60,90,3,"no","down","Left",1,"FS","FL",19,"down",612,1,"Students07"
74,0.367434799671173,0.502246379852295,-64.7543487548828,138.383911132812,43.529712677002,366.989,1267.008,232.998,"Pictures_Onset",217.011,"07","Healthy",7,60,90,4,"no","down","Left",0,"FL","FS",19,"down",636,1,"Students07"
74,0.364366680383682,0.519966661930084,-66.2063293457031,133.905670166016,41.8996696472168,150.003,1665.997,631.987,"Pictures_Onset",616,"07","Healthy",7,60,90,4,"no","down","Left",0,"FL","FS",19,"down",636,1,"Students07"
74,0.6229048371315,0.498809486627579,57.0854721069336,139.250946044922,43.8464317321777,217.996,1898.01,864,"Pictures_Onset",848.013,"07","Sugary",7,60,90,4,"no","down","Left",0,"FL","FS",19,"down",636,1,"Students07"
74,0.642366707324982,0.475166618824005,66.3078384399414,145.175003051758,46.0016708374023,315.994,2148.006,1113.996,"Pictures_Onset",1098.009,"07","Sugary",7,60,90,4,"no","down","Left",0,"FL","FS",19,"down",636,1,"Students07"
74,0.649644494056702,0.498644411563873,69.7473297119141,139.26155090332,43.8491134643555,234.009,2497.997,1463.987,"Pictures_Onset",1448,"07","Sugary",7,60,90,4,"no","down","Left",0,"FL","FS",19,"down",636,1,"Students07"
74,0.597499966621399,0.502433359622955,44.8796615600586,138.308334350586,43.504997253418,149.005,2832,1797.99,"Pictures_Onset",1782.003,"07","Sugary",7,60,90,4,"no","down","Left",0,"FL","FS",19,"down",636,1,"Students07"
75,0.399027734994888,0.473222225904465,-49.7133331298828,145.696380615234,46.1916656494141,183.002,1253.99,232.998,"Pictures_Onset",203.993,"07","Sugary",7,60,90,1,"no","up","Right",0,"FS","FL",19,"up",657,1,"Students07"
75,0.620520830154419,0.506312489509583,55.8466682434082,137.302490234375,43.1366653442383,249.997,1520,499.008,"Pictures_Onset",470.003,"07","Healthy",7,60,90,1,"no","up","Right",0,"FS","FL",19,"up",657,1,"Students07"
75,0.627388775348663,0.509499967098236,59.1099967956543,136.557235717773,42.8652801513672,183.002,1802.995,782.003,"Pictures_Onset",752.998,"07","Healthy",7,60,90,1,"no","up","Right",0,"FS","FL",19,"up",657,1,"Students07"
75,0.37933337688446,0.481431394815445,-59.1027450561523,143.606857299805,45.4315719604492,264.999,2069.99,1048.998,"Pictures_Onset",1019.993,"07","Sugary",7,60,90,1,"no","up","Right",0,"FS","FL",19,"up",657,1,"Students07"
75,0.412696957588196,0.480424284934998,-43.1236381530762,143.853332519531,45.5209083557129,167.002,2368,1347.008,"Pictures_Onset",1318.003,"07","Sugary",7,60,90,1,"no","up","Right",0,"FS","FL",19,"up",657,1,"Students07"
75,0.617592632770538,0.494777739048004,54.565185546875,140.244812011719,44.2077789306641,133.005,2668.992,1648,"Pictures_Onset",1618.995,"07","Healthy",7,60,90,1,"no","up","Right",0,"FS","FL",19,"up",657,1,"Students07"
75,0.627766668796539,0.512633383274078,59.3666610717773,135.752334594727,42.5716705322266,150.003,2833.997,1813.005,"Pictures_Onset",1784,"07","Healthy",7,60,90,1,"no","up","Right",0,"FS","FL",19,"up",657,1,"Students07"
76,0.366923063993454,0.486820548772812,-65.0389785766602,142.266159057617,44.9433250427246,199.988,1252.006,216.012,"Pictures_Onset",202.009,"07","Healthy",7,60,90,2,"no","up","Right",1,"FL","FS",19,"up",733,1,"Students07"
76,0.629238128662109,0.495976179838181,60.0392837524414,139.98046875,44.1116676330566,216,1617.997,582.003,"Pictures_Onset",568,"07","Sugary",7,60,90,2,"no","up","Right",1,"FL","FS",19,"up",733,1,"Students07"
76,0.630625009536743,0.459625035524368,60.6733322143555,149.080429077148,47.4229202270508,249.011,1867.994,832,"Pictures_Onset",817.997,"07","Sugary",7,60,90,2,"no","up","Right",1,"FL","FS",19,"up",733,1,"Students07"
76,0.624761939048767,0.480095237493515,57.9290428161621,143.955474853516,45.5586967468262,449.996,2151.002,1115.008,"Pictures_Onset",1101.005,"07","Sugary",7,60,90,2,"no","up","Right",1,"FL","FS",19,"up",733,1,"Students07"
76,0.369288861751556,0.501022219657898,-63.8704452514648,138.687789916992,43.6420021057129,233.011,2699.994,1664,"Pictures_Onset",1649.997,"07","Healthy",7,60,90,2,"no","up","Right",1,"FL","FS",19,"up",733,1,"Students07"
77,0.376566648483276,0.497166693210602,-60.4000015258789,139.639678955078,43.9866676330566,148.992,1272,216.998,"Pictures_Onset",222.003,"07","Sugary",7,60,90,4,"no","down","Left",1,"FS","FL",20,"down",871,1,"Students07"
77,0.378666669130325,0.511833310127258,-59.4249992370605,135.917083740234,42.6324996948242,114.995,1456,400.998,"Pictures_Onset",406.003,"07","Sugary",7,60,90,4,"no","down","Left",1,"FS","FL",20,"down",871,1,"Students07"
77,0.628316700458527,0.483500003814697,59.587158203125,143.108673095703,45.2501678466797,316.007,1770.995,715.993,"Pictures_Onset",720.998,"07","Healthy",7,60,90,4,"no","down","Left",1,"FS","FL",20,"down",871,1,"Students07"
