"trial_id","sx","sy","px","py","pz","duration","timestamp","trial_onset","label","label_onset","subject_nr.x","AOI_visited","subject_nr.y","fat_craving","sugar_craving","Block","practice","Arrow_Direction","Arrow_Position","Congruence","Left_Picture","Right_Picture","Pair_Number","response","response_time","accuracy","part_ID"
1,0.384812504053116,0.477354198694229,-56.2822914123535,144.088958740234,45.6056251525879,250.01,1240,200,"Pictures_Onset",178.995,"09","Salty",9,80,80,1,"no","up","Left",1,"FF","FL",1,"up",478,1,"Students09"
1,0.402984827756882,0.464787870645523,-47.6433372497559,147.222885131836,46.747127532959,167.001,1522.01,482.01,"Pictures_Onset",461.005,"09","Salty",9,80,80,1,"no","up","Left",1,"FF","FL",1,"up",478,1,"Students09"
1,0.634366691112518,0.468488901853561,61.5761108398438,146.268569946289,46.4026641845703,232.998,1789.005,749.005,"Pictures_Onset",728,"09","Healthy",9,80,80,1,"no","up","Left",1,"FF","FL",1,"up",478,1,"Students09"
1,0.635355174541473,0.493789851665497,62.1113052368164,139.970794677734,44.1077537536621,366.003,2055.002,1015.002,"Pictures_Onset",993.997,"09","Healthy",9,80,80,1,"no","up","Left",1,"FF","FL",1,"up",478,1,"Students09"
1,0.615270853042603,0.45472913980484,52.665210723877,149.762496948242,47.6704177856445,117.005,2488,1448,"Pictures_Onset",1426.995,"09","Healthy",9,80,80,1,"no","up","Left",1,"FF","FL",1,"up",478,1,"Students09"
1,0.36945366859436,0.48203706741333,-63.4520416259766,142.870071411133,45.1643524169922,283.008,2687.002,1647.002,"Pictures_Onset",1625.997,"09","Salty",9,80,80,1,"no","up","Left",1,"FF","FL",1,"up",478,1,"Students09"
2,0.639256417751312,0.488384604454041,63.9225692749023,141.312042236328,44.5969200134277,200,1447.002,400,"Pictures_Onset",385.997,"09","Salty",9,80,80,2,"no","up","Left",0,"FL","FF",1,"up",569,1,"Students09"
2,0.66667366027832,0.46956941485405,76.8528442382812,146.048400878906,46.3193054199219,382.003,1745.997,698.995,"Pictures_Onset",684.992,"09","Salty",9,80,80,2,"no","up","Left",0,"FL","FF",1,"up",569,1,"Students09"
2,0.3610500395298,0.45876669883728,-67.442497253418,148.69450378418,47.2849960327148,150.003,2377.997,1330.995,"Pictures_Onset",1316.992,"09","Healthy",9,80,80,2,"no","up","Left",0,"FL","FF",1,"up",569,1,"Students09"
2,0.365069419145584,0.466652780771255,-65.5880508422852,146.724731445312,46.5675010681152,182.335333333333,2561.66466666667,1547.66166666667,"Pictures_Onset",1533.65866666667,"09","Healthy",9,80,80,2,"no","up","Left",0,"FL","FF",1,"up",569,1,"Students09"
3,0.384588927030563,0.48522225022316,-56.380672454834,142.089340209961,44.8794479370117,232.998,1273.997,249.997,"Pictures_Onset",212.992,"09","Salty",9,80,80,3,"no","down","Right",0,"FF","FL",1,"down",499,1,"Students09"
3,0.608822882175446,0.463697969913483,49.6119804382324,147.503662109375,46.8493728637695,249.997,1573.005,549.005,"Pictures_Onset",512,"09","Healthy",9,80,80,3,"no","down","Right",0,"FF","FL",1,"down",499,1,"Students09"
3,0.635074019432068,0.463814854621887,61.9929656982422,147.466110229492,46.8364791870117,132.007,1872.998,848.998,"Pictures_Onset",811.993,"09","Healthy",9,80,80,3,"no","down","Right",0,"FF","FL",1,"down",499,1,"Students09"
3,0.390058785676956,0.470176458358765,-53.7790184020996,145.887939453125,46.2621574401855,267.008,2104.998,1080.998,"Pictures_Onset",1043.993,"09","Salty",9,80,80,3,"no","down","Right",0,"FF","FL",1,"down",499,1,"Students09"
3,0.37712499499321,0.464552104473114,-59.9193687438965,147.282196044922,46.7694816589355,249.997,2405.005,1381.005,"Pictures_Onset",1344,"09","Salty",9,80,80,3,"no","down","Right",0,"FF","FL",1,"down",499,1,"Students09"
3,0.347730785608292,0.480179488658905,-73.7530822753906,143.370132446289,45.3460273742676,200,2720.998,1696.998,"Pictures_Onset",1659.993,"09","Salty",9,80,80,3,"no","down","Right",0,"FF","FL",1,"down",499,1,"Students09"
4,0.381147027015686,0.470548957586288,-57.9270515441895,145.759017944336,46.2164688110352,266.328333333333,1266.67666666667,250.662666666667,"Pictures_Onset",239.667666666667,"09","Healthy",9,80,80,4,"no","down","Right",1,"FL","FF",1,"down",508,1,"Students09"
4,0.41852080821991,0.474729180335999,-40.2825050354004,144.748748779297,45.8466606140137,116.992,1682.01,632,"Pictures_Onset",621.005,"09","Healthy",9,80,80,4,"no","down","Right",1,"FL","FF",1,"down",508,1,"Students09"
4,0.64308887720108,0.475600033998489,65.8053359985352,144.498870849609,45.7577781677246,232.998,1899.008,848.998,"Pictures_Onset",838.003,"09","Salty",9,80,80,4,"no","down","Right",1,"FL","FF",1,"down",508,1,"Students09"
4,0.641766607761383,0.453816711902618,65.047004699707,150.000503540039,47.7595024108887,149.005,2165.67166666667,1148.65966666667,"Pictures_Onset",1137.66466666667,"09","Salty",9,80,80,4,"no","down","Right",1,"FL","FF",1,"down",508,1,"Students09"
4,0.640166699886322,0.460866719484329,64.4176635742188,148.230987548828,47.1136627197266,232,2349.005,1298.995,"Pictures_Onset",1288,"09","Salty",9,80,80,4,"no","down","Right",1,"FL","FF",1,"down",508,1,"Students09"
4,0.664685249328613,0.449888914823532,75.9651870727539,151.012588500977,48.1264801025391,166.335333333333,2614.66966666667,1614.65666666667,"Pictures_Onset",1603.66166666667,"09","Salty",9,80,80,4,"no","down","Right",1,"FL","FF",1,"down",508,1,"Students09"
4,0.66631817817688,0.461257576942444,76.6925735473633,148.130752563477,47.0780296325684,165.336333333333,2814.66966666667,1796.65966666667,"Pictures_Onset",1785.66466666667,"09","Salty",9,80,80,4,"no","down","Right",1,"FL","FF",1,"down",508,1,"Students09"
5,0.38824999332428,0.491083323955536,-54.5595855712891,140.59375,44.3339576721191,116.992,1231.002,200,"Pictures_Onset",169.997,"09","Salty",9,80,80,2,"no","up","Left",1,"FF","FL",2,"up",2137,1,"Students09"
5,0.385349988937378,0.496233314275742,-56.0216598510742,139.328155517578,43.8753280639648,151.001,1379.994,348.992,"Pictures_Onset",318.989,"09","Salty",9,80,80,2,"no","up","Left",1,"FF","FL",2,"up",2137,1,"Students09"
5,0.656791687011719,0.489020764827728,72.1987457275391,141.161468505859,44.5408325195312,248.999,1614.003,583.001,"Pictures_Onset",552.998,"09","Healthy",9,80,80,2,"no","up","Left",1,"FF","FL",2,"up",2137,1,"Students09"
5,0.62909722328186,0.489416688680649,59.116943359375,141.041809082031,44.5001373291016,216.999,1912.998,881.996,"Pictures_Onset",851.993,"09","Healthy",9,80,80,2,"no","up","Left",1,"FF","FL",2,"up",2137,1,"Students09"
5,0.633226096630096,0.488357216119766,61.1023788452148,141.356781005859,44.6109504699707,216,2162.995,1131.993,"Pictures_Onset",1101.99,"09","Healthy",9,80,80,2,"no","up","Left",1,"FF","FL",2,"up",2137,1,"Students09"
5,0.654296278953552,0.464444488286972,71.0216751098633,147.296112060547,46.7733345031738,134.003,2411.994,1380.992,"Pictures_Onset",1350.989,"09","Healthy",9,80,80,2,"no","up","Left",1,"FF","FL",2,"up",2137,1,"Students09"
5,0.658277750015259,0.460999965667725,72.9846343994141,148.196472167969,47.1029663085938,133.336333333334,2578.66366666667,1597.65866666667,"Pictures_Onset",1567.65566666667,"09","Healthy",9,80,80,2,"no","up","Left",1,"FF","FL",2,"up",2137,1,"Students09"
5,0.626083314418793,0.49570831656456,57.6820831298828,139.431671142578,43.9112510681152,116.006,2761.997,1730.995,"Pictures_Onset",1700.992,"09","Healthy",9,80,80,2,"no","up","Left",1,"FF","FL",2,"up",2137,1,"Students09"
6,0.384722262620926,0.471977800130844,-56.1919975280762,145.44010925293,46.0986671447754,232.998,1237.005,216,"Pictures_Onset",176,"09","Healthy",9,80,80,3,"no","up","Left",0,"FL","FF",2,"up",512,1,"Students09"
6,0.364961564540863,0.479999989271164,-65.5770492553711,143.441146850586,45.3708953857422,200,1536,514.995,"Pictures_Onset",474.995,"09","Healthy",9,80,80,3,"no","up","Left",0,"FL","FF",2,"up",512,1,"Students09"
6,0.394719302654266,0.455868363380432,-51.5085945129395,149.424545288086,47.5496482849121,298.995,1886.003,864.998,"Pictures_Onset",824.998,"09","Healthy",9,80,80,3,"no","up","Left",0,"FL","FF",2,"up",512,1,"Students09"
6,0.652916610240936,0.499866664409637,70.3541717529297,138.43684387207,43.5505027770996,148.992,2286.003,1264.998,"Pictures_Onset",1224.998,"09","Salty",9,80,80,3,"no","up","Left",0,"FL","FF",2,"up",512,1,"Students09"
6,0.630674600601196,0.477206408977509,59.8766632080078,144.122619628906,45.6198425292969,333.323333333333,2501.67166666667,1513.66466666667,"Pictures_Onset",1473.66466666667,"09","Salty",9,80,80,3,"no","up","Left",0,"FL","FF",2,"up",512,1,"Students09"
6,0.627809524536133,0.476380974054337,58.5190467834473,144.327621459961,45.6921463012695,101.005,2866.995,1845.99,"Pictures_Onset",1805.99,"09","Salty",9,80,80,3,"no","up","Left",0,"FL","FF",2,"up",512,1,"Students09"
7,0.632562518119812,0.465916693210602,60.7971878051758,146.946899414062,46.6484375,249.996,1299.994,249.997,"Pictures_Onset",238.989,"09","Healthy",9,80,80,4,"no","down","Right",0,"FF","FL",2,"down",801,1,"Students09"
7,0.621208310127258,0.478958308696747,55.3485412597656,143.682693481445,45.4587478637695,116.325333333333,1682.66366666667,665.664666666666,"Pictures_Onset",654.656666666666,"09","Healthy",9,80,80,4,"no","down","Right",0,"FF","FL",2,"down",801,1,"Students09"
7,0.629651486873627,0.481409102678299,59.4156036376953,143.033950805664,45.2236328125,166.335333333333,1832.65366666667,815.667666666667,"Pictures_Onset",804.659666666667,"09","Healthy",9,80,80,4,"no","down","Right",0,"FF","FL",2,"down",801,1,"Students09"
7,0.656277894973755,0.480166643857956,71.995002746582,143.323883056641,45.3300018310547,132.992,2065.997,1016,"Pictures_Onset",1004.992,"09","Healthy",9,80,80,4,"no","down","Right",0,"FF","FL",2,"down",801,1,"Students09"
7,0.657988131046295,0.468392908573151,72.8102340698242,146.30061340332,46.4125061035156,215.346333333333,2232.65366666667,1215.66766666667,"Pictures_Onset",1204.65966666667,"09","Healthy",9,80,80,4,"no","down","Right",0,"FF","FL",2,"down",801,1,"Students09"
7,0.652785778045654,0.45700004696846,70.3300018310547,149.159759521484,47.4521484375,216.332333333333,2481.66466666667,1464.66666666667,"Pictures_Onset",1453.65866666667,"09","Healthy",9,80,80,4,"no","down","Right",0,"FF","FL",2,"down",801,1,"Students09"
7,0.645757615566254,0.499409109354019,66.9921188354492,138.513336181641,43.576358795166,166.003,2747.994,1697.997,"Pictures_Onset",1686.989,"09","Healthy",9,80,80,4,"no","down","Right",0,"FF","FL",2,"down",801,1,"Students09"
8,0.39658334851265,0.482773810625076,-50.7082176208496,142.683197021484,45.0975036621094,216,1248,216.998,"Pictures_Onset",186.995,"09","Healthy",9,80,80,1,"no","down","Right",1,"FL","FF",2,"down",469,1,"Students09"
8,0.369326084852219,0.482826203107834,-63.5574684143066,142.680297851562,45.0944175720215,365.324333333333,1513.67766666667,515.674666666667,"Pictures_Onset",485.671666666667,"09","Healthy",9,80,80,1,"no","down","Right",1,"FL","FF",2,"down",469,1,"Students09"
8,0.639466643333435,0.481311112642288,64.0284423828125,143.094009399414,45.2446632385254,232.998,1963.008,932.006,"Pictures_Onset",902.003,"09","Salty",9,80,80,1,"no","down","Right",1,"FL","FF",2,"down",469,1,"Students09"
8,0.625622868537903,0.486482471227646,57.5307922363281,141.772552490234,44.7645568847656,298.995,2229.005,1198.003,"Pictures_Onset",1168,"09","Salty",9,80,80,1,"no","down","Right",1,"FL","FF",2,"down",469,1,"Students09"
8,0.652194440364838,0.491833299398422,70.0619430541992,140.43278503418,44.277774810791,183.001,2562.01,1531.008,"Pictures_Onset",1501.005,"09","Salty",9,80,80,1,"no","down","Right",1,"FL","FF",2,"down",469,1,"Students09"
8,0.653961539268494,0.497064083814621,70.8782043457031,139.128463745117,43.8017959594727,200,2778.01,1747.008,"Pictures_Onset",1717.005,"09","Salty",9,80,80,1,"no","down","Right",1,"FL","FF",2,"down",469,1,"Students09"
9,0.608398199081421,0.483425974845886,49.3450927734375,142.549545288086,45.0465812683105,282.995,1046.003,0,"Pictures_Onset",-15.0020000000002,"09","Healthy",9,80,80,3,"no","up","Left",1,"FF","FL",3,"up",734,1,"Students09"
9,0.38922917842865,0.481875002384186,-54.0802116394043,142.926239013672,45.1843719482422,117.005,1429.005,383.002,"Pictures_Onset",368,"09","Salty",9,80,80,3,"no","up","Left",1,"FF","FL",3,"up",734,1,"Students09"
9,0.382783353328705,0.484166711568832,-57.1456680297852,142.371337890625,44.9809989929199,149.99,1579.008,533.005,"Pictures_Onset",518.003,"09","Salty",9,80,80,3,"no","up","Left",1,"FF","FL",3,"up",734,1,"Students09"
9,0.609705090522766,0.46592304110527,49.9620513916016,146.909606933594,46.6341094970703,200,1828.006,782.003,"Pictures_Onset",767.001,"09","Healthy",9,80,80,3,"no","up","Left",1,"FF","FL",3,"up",734,1,"Students09"
9,0.643227219581604,0.45678785443306,65.7878723144531,149.218933105469,47.4748497009277,165.670666666666,2095.002,1048.999,"Pictures_Onset",1033.997,"09","Healthy",9,80,80,3,"no","up","Left",1,"FF","FL",3,"up",734,1,"Students09"
9,0.635729193687439,0.493416666984558,62.3464584350586,140.004791259766,44.1212539672852,116.672666666666,2295.002,1248.999,"Pictures_Onset",1233.997,"09","Healthy",9,80,80,3,"no","up","Left",1,"FF","FL",3,"up",734,1,"Students09"
9,0.626833379268646,0.530875027179718,58.0991668701172,130.669158935547,40.723747253418,183.002,2444.006,1398.003,"Pictures_Onset",1383.001,"09","Healthy",9,80,80,3,"no","up","Left",1,"FF","FL",3,"up",734,1,"Students09"
9,0.601383328437805,0.503466725349426,46.0806655883789,137.517486572266,43.2159957885742,150.003,2677.005,1631.002,"Pictures_Onset",1616,"09","Healthy",9,80,80,3,"no","up","Left",1,"FF","FL",3,"up",734,1,"Students09"
10,0.383925884962082,0.475842595100403,-56.6362037658691,144.4697265625,45.7466697692871,281.996,1259.994,232.999,"Pictures_Onset",198.989,"09","Healthy",9,80,80,4,"no","up","Left",0,"FL","FF",3,"up",643,1,"Students09"
10,0.642281293869019,0.476625025272369,65.303337097168,144.248123168945,45.666145324707,248.999,1808.998,782.003,"Pictures_Onset",747.993,"09","Salty",9,80,80,4,"no","up","Left",0,"FL","FF",3,"up",643,1,"Students09"
10,0.375895798206329,0.476166665554047,-60.46875,144.326873779297,45.6952056884766,117.005,2290.995,1264,"Pictures_Onset",1229.99,"09","Healthy",9,80,80,4,"no","up","Left",0,"FL","FF",3,"up",643,1,"Students09"
10,0.644928574562073,0.48822620511055,66.629280090332,141.36833190918,44.6173782348633,215.667666666666,2707.994,1680.999,"Pictures_Onset",1646.989,"09","Salty",9,80,80,4,"no","up","Left",0,"FL","FF",3,"up",643,1,"Students09"
11,0.397442549467087,0.466793090105057,-50.2611999511719,146.716781616211,46.564022064209,465.997,1285.99,232.998,"Pictures_Onset",224.985,"09","Salty",9,80,80,1,"no","down","Right",0,"FF","FL",3,"down",580,1,"Students09"
11,0.63699996471405,0.456148147583008,62.8451805114746,149.378143310547,47.532958984375,134.003,1833.997,781.005,"Pictures_Onset",772.992,"09","Healthy",9,80,80,1,"no","down","Right",0,"FF","FL",3,"down",580,1,"Students09"
11,0.374131292104721,0.48094442486763,-61.2432289123535,143.170791625977,45.2722206115723,531.994,2050.995,998.003,"Pictures_Onset",989.99,"09","Salty",9,80,80,1,"no","down","Right",0,"FF","FL",3,"down",580,1,"Students09"
11,0.652666687965393,0.47500005364418,70.2834930419922,144.640655517578,45.8073348999023,315.994,2666.995,1614.003,"Pictures_Onset",1605.99,"09","Healthy",9,80,80,1,"no","down","Right",0,"FF","FL",3,"down",580,1,"Students09"
12,0.37385419011116,0.469437509775162,-61.3618774414062,146.044998168945,46.3187484741211,249.997,1268.006,232.998,"Pictures_Onset",207.001,"09","Healthy",9,80,80,2,"no","down","Right",1,"FL","FF",3,"down",542,1,"Students09"
12,0.397166669368744,0.433683335781097,-50.3784980773926,155.026504516602,49.5863342285156,149.005,1568,532.992,"Pictures_Onset",506.995,"09","Healthy",9,80,80,2,"no","down","Right",1,"FL","FF",3,"down",542,1,"Students09"
12,0.645185232162476,0.463181495666504,66.7398452758789,147.599853515625,46.8845901489258,266.663666666667,1867.008,832,"Pictures_Onset",806.003,"09","Salty",9,80,80,2,"no","down","Right",1,"FL","FF",3,"down",542,1,"Students09"
12,0.653388857841492,0.478537082672119,70.6372222900391,143.789642333984,45.4987030029297,283.008,2167.002,1131.994,"Pictures_Onset",1105.997,"09","Salty",9,80,80,2,"no","down","Right",1,"FL","FF",3,"down",542,1,"Students09"
12,0.361545443534851,0.447818249464035,-67.1757507324219,151.471527099609,48.2945442199707,200.331333333334,2749.67166666667,1764.66066666667,"Pictures_Onset",1738.66366666667,"09","Healthy",9,80,80,2,"no","down","Right",1,"FL","FF",3,"down",542,1,"Students09"
13,0.366895854473114,0.465895861387253,-64.6706237792969,146.955200195312,46.6485404968262,116.325333333333,1425.67766666667,432.666666666667,"Pictures_Onset",398.669666666667,"09","Salty",9,80,80,4,"no","up","Left",1,"FF","FL",4,"up",483,1,"Students09"
13,0.360458344221115,0.465208321809769,-67.7700042724609,147.137924194336,46.7154159545898,116.006,1576,548.992,"Pictures_Onset",514.995,"09","Salty",9,80,80,4,"no","up","Left",1,"FF","FL",4,"up",483,1,"Students09"
13,0.624749958515167,0.474166661500931,57.0626068115234,144.88020324707,45.8953132629395,248.998,1792,764.992,"Pictures_Onset",730.995,"09","Healthy",9,80,80,4,"no","up","Left",1,"FF","FL",4,"up",483,1,"Students09"
13,0.37371301651001,0.471240729093552,-61.4023170471191,145.57389831543,46.1481475830078,281.997,2225.011,1198.003,"Pictures_Onset",1164.006,"09","Salty",9,80,80,4,"no","up","Left",1,"FF","FL",4,"up",483,1,"Students09"
13,0.343066662549973,0.482466697692871,-75.8917770385742,142.805755615234,45.1402244567871,232.998,2557.005,1529.997,"Pictures_Onset",1496,"09","Salty",9,80,80,4,"no","up","Left",1,"FF","FL",4,"up",483,1,"Students09"
13,0.327666670084,0.465651541948318,-83.2087936401367,146.98908996582,46.6634864807129,165.005,2824,1796.992,"Pictures_Onset",1762.995,"09","Salty",9,80,80,4,"no","up","Left",1,"FF","FL",4,"up",483,1,"Students09"
14,0.382788836956024,0.483444422483444,-57.1425514221191,142.533676147461,45.039665222168,232.998,1268.992,248.998,"Pictures_Onset",207.987,"09","Healthy",9,80,80,1,"no","up","Left",0,"FL","FF",4,"up",524,1,"Students09"
14,0.644623160362244,0.475775420665741,66.4931106567383,144.486938476562,45.7527542114258,364.992,1585.997,566.003,"Pictures_Onset",524.992,"09","Salty",9,80,80,1,"no","up","Left",0,"FL","FF",4,"up",524,1,"Students09"
14,0.667400062084198,0.452877789735794,77.2546691894531,150.231216430664,47.8425483703613,233.665666666666,2000.998,981.004,"Pictures_Onset",939.993,"09","Salty",9,80,80,1,"no","up","Left",0,"FL","FF",4,"up",524,1,"Students09"
14,0.66929167509079,0.478805541992188,78.0929183959961,143.686660766602,45.4606971740723,183.001,2267.994,1248,"Pictures_Onset",1206.989,"09","Salty",9,80,80,1,"no","up","Left",0,"FL","FF",4,"up",524,1,"Students09"
14,0.646097242832184,0.514097273349762,67.1744384765625,134.855560302734,42.244026184082,183.001,2483.994,1464,"Pictures_Onset",1422.989,"09","Salty",9,80,80,1,"no","up","Left",0,"FL","FF",4,"up",524,1,"Students09"
14,0.642452359199524,0.445976227521896,65.4963150024414,151.924041748047,48.4572563171387,216.331333333333,2733.65866666667,1746.66266666667,"Pictures_Onset",1705.65166666667,"09","Salty",9,80,80,1,"no","up","Left",0,"FL","FF",4,"up",524,1,"Students09"
15,0.38162499666214,0.468687534332275,-57.6873931884766,146.226043701172,46.3845825195312,251.008,1264.998,232,"Pictures_Onset",203.993,"09","Salty",9,80,80,2,"no","down","Right",0,"FF","FL",4,"down",585,1,"Students09"
15,0.641803026199341,0.461606055498123,65.1621246337891,148.028015136719,47.0425758361816,167.001,1765.005,732.007,"Pictures_Onset",704,"09","Healthy",9,80,80,2,"no","down","Right",0,"FF","FL",4,"down",585,1,"Students09"
15,0.608291685581207,0.459812492132187,49.289794921875,148.43977355957,47.1908340454102,149.004,2015.002,982.004,"Pictures_Onset",953.997,"09","Healthy",9,80,80,2,"no","down","Right",0,"FF","FL",4,"down",585,1,"Students09"
15,0.401214301586151,0.459023773670197,-48.5234489440918,148.652130126953,47.2691650390625,215.667666666667,2431.002,1398.004,"Pictures_Onset",1369.997,"09","Salty",9,80,80,2,"no","down","Right",0,"FF","FL",4,"down",585,1,"Students09"
15,0.378196060657501,0.481245100498199,-59.3646087646484,143.066192626953,45.2354927062988,265.343333333333,2697.66466666667,1697.66566666667,"Pictures_Onset",1669.65866666667,"09","Salty",9,80,80,2,"no","down","Right",0,"FF","FL",4,"down",585,1,"Students09"
16,0.640962898731232,0.474083304405212,64.7800903320312,144.910278320312,45.9059257507324,283.008,1471.002,448.999,"Pictures_Onset",409.997,"09","Salty",9,80,80,3,"no","down","Right",1,"FL","FF",4,"down",549,1,"Students09"
16,0.394499957561493,0.472588866949081,-51.6620025634766,145.273895263672,46.0378875732422,232,1854.003,832,"Pictures_Onset",792.998,"09","Healthy",9,80,80,3,"no","down","Right",1,"FL","FF",4,"down",549,1,"Students09"
16,0.410484820604324,0.482242405414581,-44.1531829833984,142.851654052734,45.1577301025391,166.003,2120,1097.997,"Pictures_Onset",1058.995,"09","Healthy",9,80,80,3,"no","down","Right",1,"FL","FF",4,"down",549,1,"Students09"
16,0.635291695594788,0.440895855426788,62.0318794250488,153.168533325195,48.9110412597656,116.992,2369.011,1347.008,"Pictures_Onset",1308.006,"09","Salty",9,80,80,3,"no","down","Right",1,"FL","FF",4,"down",549,1,"Students09"
16,0.638574063777924,0.454703658819199,63.6233329772949,149.711669921875,47.6544456481934,133.004,2519.002,1496.999,"Pictures_Onset",1457.997,"09","Salty",9,80,80,3,"no","down","Right",1,"FL","FF",4,"down",549,1,"Students09"
16,0.656833410263062,0.458092570304871,72.2072219848633,148.892135620117,47.3547210693359,283.326333333333,2685.67166666667,1712.66666666667,"Pictures_Onset",1673.66466666667,"09","Salty",9,80,80,3,"no","down","Right",1,"FL","FF",4,"down",549,1,"Students09"
17,0.383760392665863,0.494249999523163,-56.7530174255371,139.839477539062,44.0607299804688,248.998,1324.992,282.995,"Pictures_Onset",263.987,"09","Salty",9,80,80,1,"no","up","Left",1,"FF","FL",5,"up",427,1,"Students09"
17,0.644789457321167,0.495798200368881,66.5450057983398,139.457473754883,43.9210510253906,299.008,1740.992,698.995,"Pictures_Onset",679.987,"09","Healthy",9,80,80,1,"no","up","Left",1,"FF","FL",5,"up",427,1,"Students09"
17,0.631088256835938,0.484519630670547,60.1511726379395,142.275787353516,44.9480438232422,265.997,2073.997,1032,"Pictures_Onset",1012.992,"09","Healthy",9,80,80,1,"no","up","Left",1,"FF","FL",5,"up",427,1,"Students09"
17,0.614250004291534,0.473726212978363,52.1251182556152,144.973434448242,45.9294052124023,216.998,2372.992,1330.995,"Pictures_Onset",1311.987,"09","Healthy",9,80,80,1,"no","up","Left",1,"FF","FL",5,"up",427,1,"Students09"
17,0.606523811817169,0.462404757738113,48.4297561645508,147.845001220703,46.9730911254883,100.006,2622.989,1580.992,"Pictures_Onset",1561.984,"09","Healthy",9,80,80,1,"no","up","Left",1,"FF","FL",5,"up",427,1,"Students09"
18,0.376203715801239,0.465518593788147,-60.2588844299316,147.023162841797,46.6748199462891,281.997,1248,200,"Pictures_Onset",186.995,"09","Healthy",9,80,80,2,"no","up","Left",0,"FL","FF",5,"up",746,1,"Students09"
18,0.642845213413239,0.478583335876465,65.6496429443359,143.788925170898,45.4986915588379,216,1613.99,565.99,"Pictures_Onset",552.985,"09","Salty",9,80,80,2,"no","up","Left",0,"FL","FF",5,"up",746,1,"Students09"
18,0.615854203701019,0.508833289146423,52.9891662597656,136.176040649414,42.7264595031738,115.662666666667,1896.998,848.998,"Pictures_Onset",835.993,"09","Salty",9,80,80,2,"no","up","Left",0,"FL","FF",5,"up",746,1,"Students09"
18,0.361266642808914,0.481316715478897,-67.2971649169922,143.075408935547,45.2377510070801,315.994,2112.998,1064.998,"Pictures_Onset",1051.993,"09","Healthy",9,80,80,2,"no","up","Left",0,"FL","FF",5,"up",746,1,"Students09"
18,0.379199981689453,0.491166651248932,-58.8273315429688,140.610504150391,44.3396682739258,150.004,2528.998,1480.998,"Pictures_Onset",1467.993,"09","Healthy",9,80,80,2,"no","up","Left",0,"FL","FF",5,"up",746,1,"Students09"
18,0.378136366605759,0.512090921401978,-59.4268188476562,135.396667480469,42.4416656494141,166.989,2712,1664,"Pictures_Onset",1650.995,"09","Healthy",9,80,80,2,"no","up","Left",0,"FL","FF",5,"up",746,1,"Students09"
19,0.377439379692078,0.470606058835983,-59.7005996704102,145.764251708984,46.216667175293,166.670666666667,1292.006,248.998,"Pictures_Onset",231.001,"09","Salty",9,80,80,3,"no","down","Right",0,"FF","FL",5,"down",581,1,"Students09"
19,0.630578517913818,0.476117581129074,59.8049011230469,144.380767822266,45.7132339477539,266.663666666667,1542.003,498.995,"Pictures_Onset",480.998,"09","Healthy",9,80,80,3,"no","down","Right",0,"FF","FL",5,"down",581,1,"Students09"
19,0.651857078075409,0.477142959833145,69.8947601318359,144.092620849609,45.6076240539551,332.992,1841.011,798.003,"Pictures_Onset",780.006,"09","Healthy",9,80,80,3,"no","down","Right",0,"FF","FL",5,"down",581,1,"Students09"
19,0.65520828962326,0.460791677236557,71.5581207275391,148.263748168945,47.125415802002,116.337333333333,2207.66866666667,1197.65866666667,"Pictures_Onset",1179.66166666667,"09","Healthy",9,80,80,3,"no","down","Right",0,"FF","FL",5,"down",581,1,"Students09"
19,0.610677003860474,0.446270853281021,50.4054183959961,151.898132324219,48.4492721557617,249.997,2358.003,1314.995,"Pictures_Onset",1296.998,"09","Healthy",9,80,80,3,"no","down","Right",0,"FF","FL",5,"down",581,1,"Students09"
19,0.377270847558975,0.477583289146423,-59.7452087402344,143.994995117188,45.5720825195312,116.992,2723.008,1680,"Pictures_Onset",1662.003,"09","Salty",9,80,80,3,"no","down","Right",0,"FF","FL",5,"down",581,1,"Students09"
20,0.376523792743683,0.470960259437561,-60.123966217041,145.686111450195,46.187141418457,333.004,1279.002,249.997,"Pictures_Onset",217.997,"09","Healthy",9,80,80,4,"no","down","Right",1,"FL","FF",5,"up",500,0,"Students09"
20,0.35016667842865,0.452954590320587,-72.4965133666992,150.184539794922,47.8256072998047,167.002,1678.003,648.998,"Pictures_Onset",616.998,"09","Healthy",9,80,80,4,"no","down","Right",1,"FL","FF",5,"up",500,0,"Students09"
20,0.34048718214035,0.443166702985764,-77.1585845947266,152.608215332031,48.7080726623535,199.001,1962.01,933.005,"Pictures_Onset",901.005,"09","Healthy",9,80,80,4,"no","down","Right",1,"FL","FF",5,"up",500,0,"Students09"
20,0.360925942659378,0.439388871192932,-67.4885177612305,153.585174560547,49.0622215270996,133.324333333333,2193.67766666667,1198.66966666667,"Pictures_Onset",1166.66966666667,"09","Healthy",9,80,80,4,"no","down","Right",1,"FL","FF",5,"up",500,0,"Students09"
20,0.615047514438629,0.465940475463867,52.514762878418,146.935012817383,46.6428565979004,216,2577.011,1548.006,"Pictures_Onset",1516.006,"09","Salty",9,80,80,4,"no","down","Right",1,"FL","FF",5,"up",500,0,"Students09"
20,0.635555505752563,0.472000002861023,62.1499977111816,145.417785644531,46.0894470214844,132.992,2826.01,1797.005,"Pictures_Onset",1765.005,"09","Salty",9,80,80,4,"no","down","Right",1,"FL","FF",5,"up",500,0,"Students09"
21,0.391681790351868,0.454613596200943,-52.9611320495605,149.763244628906,47.6728782653809,349.005,1257.997,216,"Pictures_Onset",196.992,"09","Salty",9,80,80,2,"no","down","Left",1,"FF","FL",6,"down",591,1,"Students09"
21,0.635518550872803,0.452666640281677,62.1851005554199,150.235931396484,47.8432426452637,281.997,1708.006,666.009,"Pictures_Onset",647.001,"09","Healthy",9,80,80,2,"no","down","Left",1,"FF","FL",6,"down",591,1,"Students09"
21,0.661064803600311,0.452481538057327,74.2103729248047,150.27946472168,47.8601913452148,281.997,2024,982.003,"Pictures_Onset",962.995,"09","Healthy",9,80,80,2,"no","down","Left",1,"FF","FL",6,"down",591,1,"Students09"
21,0.380618005990982,0.470993131399155,-58.2151336669922,145.687423706055,46.1887512207031,382.003,2407.002,1365.005,"Pictures_Onset",1345.997,"09","Salty",9,80,80,2,"no","down","Left",1,"FF","FL",6,"down",591,1,"Students09"
21,0.364250004291534,0.485166668891907,-65.8920822143555,142.096878051758,44.879997253418,117.004,2855.002,1813.005,"Pictures_Onset",1793.997,"09","Salty",9,80,80,2,"no","down","Left",1,"FF","FL",6,"down",591,1,"Students09"
22,0.384116619825363,0.486133337020874,-56.5708312988281,141.843841552734,44.7911643981934,149.99,1272.66666666667,282.662666666667,"Pictures_Onset",244.659666666667,"09","Healthy",9,80,80,3,"no","down","Left",0,"FL","FF",6,"down",659,1,"Students09"
22,0.643263876438141,0.487680554389954,65.8258285522461,141.521514892578,44.6719398498535,383.001,1571.994,548.992,"Pictures_Onset",510.989,"09","Salty",9,80,80,3,"no","down","Left",0,"FL","FF",6,"down",659,1,"Students09"
22,0.625133335590363,0.487044423818588,57.2131118774414,141.689987182617,44.731330871582,100.007,1988.32833333333,1015.32333333333,"Pictures_Onset",977.320333333333,"09","Salty",9,80,80,3,"no","down","Left",0,"FL","FF",6,"down",659,1,"Students09"
22,0.619425892829895,0.472222208976746,54.5849990844727,145.380554199219,46.0772247314453,132.992,2120.998,1097.996,"Pictures_Onset",1059.993,"09","Salty",9,80,80,3,"no","down","Left",0,"FL","FF",6,"down",659,1,"Students09"
22,0.382416665554047,0.469020843505859,-57.4018745422363,146.184783935547,46.3685417175293,117.336333333334,2370.66366666667,1397.65866666667,"Pictures_Onset",1359.65566666667,"09","Healthy",9,80,80,3,"no","down","Left",0,"FL","FF",6,"down",659,1,"Students09"
22,0.654583394527435,0.481552064418793,71.21875,143.044998168945,45.2269821166992,248.999,2720.998,1697.996,"Pictures_Onset",1659.993,"09","Salty",9,80,80,3,"no","down","Left",0,"FL","FF",6,"down",659,1,"Students09"
23,0.393590927124023,0.460606098175049,-52.0744667053223,148.285903930664,47.1351547241211,348.659666666667,1301.005,266.995,"Pictures_Onset",240,"09","Salty",9,80,80,4,"no","up","Right",0,"FF","FL",6,"up",533,1,"Students09"
23,0.650681793689728,0.463454604148865,69.3012924194336,147.548843383789,46.868408203125,349.004,1783.002,748.992,"Pictures_Onset",721.997,"09","Healthy",9,80,80,4,"no","up","Right",0,"FF","FL",6,"up",533,1,"Students09"
23,0.370142906904221,0.465845257043839,-63.120002746582,146.970352172852,46.6552391052246,216,2332.006,1297.996,"Pictures_Onset",1271.001,"09","Salty",9,80,80,4,"no","up","Right",0,"FF","FL",6,"up",533,1,"Students09"
23,0.361458331346512,0.482541680335999,-67.308967590332,142.752304077148,45.121036529541,116.007,2582.003,1547.993,"Pictures_Onset",1520.998,"09","Salty",9,80,80,4,"no","up","Right",0,"FF","FL",6,"up",533,1,"Students09"
23,0.35426190495491,0.483321398496628,-70.6482086181641,142.599273681641,45.0639266967773,216.998,2731.008,1696.998,"Pictures_Onset",1670.003,"09","Salty",9,80,80,4,"no","up","Right",0,"FF","FL",6,"up",533,1,"Students09"
24,0.383122801780701,0.469166666269302,-57.023509979248,146.126312255859,46.3484191894531,298.995,1253.005,216.999,"Pictures_Onset",192,"09","Healthy",9,80,80,1,"no","up","Right",1,"FL","FF",6,"up",518,1,"Students09"
24,0.64208972454071,0.486397445201874,65.2605133056641,141.795135498047,44.7714080810547,199.002,1636.006,600,"Pictures_Onset",575.001,"09","Salty",9,80,80,1,"no","up","Right",1,"FL","FF",6,"up",518,1,"Students09"
24,0.646016716957092,0.481949985027313,67.1669998168945,142.916656494141,45.1791648864746,149.671666666667,1869.005,832.999,"Pictures_Onset",808,"09","Salty",9,80,80,1,"no","up","Right",1,"FL","FF",6,"up",518,1,"Students09"
24,0.67633330821991,0.467296272516251,81.4766693115234,146.602600097656,46.5222206115723,133.005,2052.006,1016,"Pictures_Onset",991.001,"09","Salty",9,80,80,1,"no","up","Right",1,"FL","FF",6,"up",518,1,"Students09"
24,0.676409125328064,0.461712151765823,81.4837951660156,147.971969604492,47.0190887451172,165.99,2218.01,1182.004,"Pictures_Onset",1157.005,"09","Salty",9,80,80,1,"no","up","Right",1,"FL","FF",6,"up",518,1,"Students09"
24,0.646145761013031,0.483354151248932,67.2472991943359,142.588531494141,45.060417175293,116.992,2434.01,1398.004,"Pictures_Onset",1373.005,"09","Salty",9,80,80,1,"no","up","Right",1,"FL","FF",6,"up",518,1,"Students09"
24,0.377999991178513,0.473545521497726,-59.448787689209,145.038787841797,45.9530296325684,165.005,2718.003,1681.997,"Pictures_Onset",1656.998,"09","Healthy",9,80,80,1,"no","up","Right",1,"FL","FF",6,"up",518,1,"Students09"
25,0.376733303070068,0.464377820491791,-60.0316696166992,147.283660888672,46.7700042724609,232.998,1285.005,265.997,"Pictures_Onset",224,"09","Salty",9,80,80,3,"no","down","Left",1,"FF","FL",7,"down",548,1,"Students09"
25,0.647466599941254,0.488555550575256,67.7865524291992,141.291458129883,44.5897789001465,232.998,1618.01,599.002,"Pictures_Onset",557.005,"09","Healthy",9,80,80,3,"no","down","Left",1,"FF","FL",7,"down",548,1,"Students09"
25,0.629437565803528,0.466177076101303,59.3410415649414,146.900939941406,46.6320838928223,248.998,1885.005,865.997,"Pictures_Onset",824,"09","Healthy",9,80,80,3,"no","down","Left",1,"FF","FL",7,"down",548,1,"Students09"
25,0.363657861948013,0.473938554525375,-66.2064895629883,144.930465698242,45.9143905639648,299.993,2234.01,1215.002,"Pictures_Onset",1173.005,"09","Salty",9,80,80,3,"no","down","Left",1,"FF","FL",7,"down",548,1,"Students09"
25,0.376933306455612,0.461022198200226,-59.9092216491699,148.204879760742,47.1050033569336,232.666666666667,2567.002,1547.994,"Pictures_Onset",1505.997,"09","Salty",9,80,80,3,"no","down","Left",1,"FF","FL",7,"down",548,1,"Students09"
25,0.370133340358734,0.459450006484985,-63.201831817627,148.574172973633,47.239330291748,149.991,2833.011,1814.003,"Pictures_Onset",1772.006,"09","Salty",9,80,80,3,"no","down","Left",1,"FF","FL",7,"down",548,1,"Students09"
26,0.372769236564636,0.46667954325676,-61.9443550109863,146.728851318359,46.56884765625,199.987,1320.013,284.007,"Pictures_Onset",259.008,"09","Healthy",9,80,80,4,"no","down","Left",0,"FL","FF",7,"down",613,1,"Students09"
26,0.635888934135437,0.458777785301208,62.3316688537598,148.756118774414,47.3059692382812,383.002,1619.008,583.002,"Pictures_Onset",558.003,"09","Salty",9,80,80,4,"no","down","Left",0,"FL","FF",7,"down",613,1,"Students09"
26,0.376000016927719,0.461552083492279,-60.358024597168,148.043869018555,47.0476036071777,249.997,2201.011,1165.005,"Pictures_Onset",1140.006,"09","Healthy",9,80,80,4,"no","down","Left",0,"FL","FF",7,"down",613,1,"Students09"
26,0.661794900894165,0.475307732820511,74.5561599731445,144.578964233398,45.7851295471191,199.001,2618.01,1582.004,"Pictures_Onset",1557.005,"09","Salty",9,80,80,4,"no","down","Left",0,"FL","FF",7,"down",613,1,"Students09"
26,0.628907442092896,0.462962955236435,59.1133270263672,147.697967529297,46.9200019836426,132.992,2850.01,1814.004,"Pictures_Onset",1789.005,"09","Salty",9,80,80,4,"no","down","Left",0,"FL","FF",7,"down",613,1,"Students09"
27,0.37795826792717,0.476427048444748,-59.4559364318848,144.2900390625,45.6792755126953,516.007,1229.99,200,"Pictures_Onset",168.985,"09","Salty",9,80,80,1,"no","up","Right",0,"FF","FL",7,"up",572,1,"Students09"
27,0.382348448038101,0.507863700389862,-57.3600006103516,136.490020751953,42.8427276611328,166.003,1778.995,749.005,"Pictures_Onset",717.99,"09","Salty",9,80,80,1,"no","up","Right",0,"FF","FL",7,"up",572,1,"Students09"
27,0.640435934066772,0.478294879198074,64.513786315918,143.833892822266,45.5139122009277,416.666666666667,2044.992,1015.002,"Pictures_Onset",983.987,"09","Healthy",9,80,80,1,"no","up","Right",0,"FF","FL",7,"up",572,1,"Students09"
27,0.660222172737122,0.478694438934326,73.8794479370117,143.741806030273,45.4797248840332,183.002,2493.99,1464,"Pictures_Onset",1432.985,"09","Healthy",9,80,80,1,"no","up","Right",0,"FF","FL",7,"up",572,1,"Students09"
27,0.369041681289673,0.469125002622604,-63.6697235107422,146.119857788086,46.3448638916016,183.001,2793.997,1764.007,"Pictures_Onset",1732.992,"09","Salty",9,80,80,1,"no","up","Right",0,"FF","FL",7,"up",572,1,"Students09"
28,0.38735419511795,0.466427117586136,-54.949893951416,146.799362182617,46.5928115844727,248.999,1262.003,232,"Pictures_Onset",200.998,"09","Healthy",9,80,80,2,"no","up","Right",1,"FL","FF",7,"down",414,0,"Students09"
28,0.635148227214813,0.474499940872192,61.9631423950195,144.806411743164,45.869197845459,433.664666666667,1593.997,563.994,"Pictures_Onset",532.992,"09","Salty",9,80,80,2,"no","up","Right",1,"FL","FF",7,"down",414,0,"Students09"
28,0.650814771652222,0.479925960302353,69.3411102294922,143.434432983398,45.3683319091797,281.997,2061.005,1031.002,"Pictures_Onset",1000,"09","Salty",9,80,80,2,"no","up","Right",1,"FL","FF",7,"down",414,0,"Students09"
28,0.352011114358902,0.482466667890549,-71.6467742919922,142.822006225586,45.146110534668,234.01,2442.995,1412.992,"Pictures_Onset",1381.99,"09","Healthy",9,80,80,2,"no","up","Right",1,"FL","FF",7,"down",414,0,"Students09"
28,0.389257520437241,0.479999989271164,-54.1234855651855,143.370742797852,45.3442420959473,166.003,2726.003,1696,"Pictures_Onset",1664.998,"09","Healthy",9,80,80,2,"no","up","Right",1,"FL","FF",7,"down",414,0,"Students09"
29,0.398717999458313,0.484102576971054,-49.6384658813477,142.410003662109,44.9956436157227,200.012,1259.994,232.999,"Pictures_Onset",198.989,"09","Salty",9,80,80,4,"no","down","Left",1,"FF","FL",8,"down",695,1,"Students09"
29,0.629433333873749,0.484177768230438,59.255672454834,142.352554321289,44.9751129150391,232.998,1543.002,516.007,"Pictures_Onset",481.997,"09","Healthy",9,80,80,4,"no","down","Left",1,"FF","FL",8,"down",695,1,"Students09"
29,0.6448695063591,0.473384022712708,66.5958633422852,145.082321166992,45.9677581787109,366.004,1808.998,782.003,"Pictures_Onset",747.993,"09","Healthy",9,80,80,4,"no","down","Left",1,"FF","FL",8,"down",695,1,"Students09"
29,0.345064848661423,0.475351810455322,-74.9304656982422,144.53498840332,45.7710266113281,282.995,2375.002,1348.007,"Pictures_Onset",1313.997,"09","Salty",9,80,80,4,"no","down","Left",1,"FF","FL",8,"down",695,1,"Students09"
29,0.631541669368744,0.462958365678787,60.2724952697754,147.685424804688,46.9158325195312,182.003,2775.002,1748.007,"Pictures_Onset",1713.997,"09","Healthy",9,80,80,4,"no","down","Left",1,"FF","FL",8,"down",695,1,"Students09"
30,0.375311076641083,0.484177738428116,-60.6872291564941,142.37776184082,44.984058380127,481.997,1472,448.998,"Pictures_Onset",410.995,"09","Healthy",9,80,80,1,"no","down","Left",0,"FL","FF",8,"down",666,1,"Students09"
30,0.641981482505798,0.486907362937927,65.2481384277344,141.687042236328,44.7338905334473,283.008,2070.989,1047.987,"Pictures_Onset",1009.984,"09","Salty",9,80,80,1,"no","down","Left",0,"FL","FF",8,"down",666,1,"Students09"
30,0.671215713024139,0.45192164182663,79.060188293457,150.396850585938,47.9044075012207,266.995,2402.995,1379.993,"Pictures_Onset",1341.99,"09","Salty",9,80,80,1,"no","down","Left",0,"FL","FF",8,"down",666,1,"Students09"
31,0.388472229242325,0.480416655540466,-54.4474983215332,143.295822143555,45.3194427490234,182.989,1260.006,232,"Pictures_Onset",199.001,"09","Salty",9,80,80,2,"no","up","Right",0,"FF","FL",8,"up",753,1,"Students09"
31,0.637711524963379,0.480282038450241,63.1766700744629,143.338592529297,45.3345489501953,416,1592.998,564.992,"Pictures_Onset",531.993,"09","Healthy",9,80,80,2,"no","up","Right",0,"FF","FL",8,"up",753,1,"Students09"
31,0.663041651248932,0.474666684865952,75.1595764160156,144.737091064453,45.841667175293,115.994,2059.008,1031.002,"Pictures_Onset",998.003,"09","Healthy",9,80,80,2,"no","up","Right",0,"FF","FL",8,"up",753,1,"Students09"
31,0.658406257629395,0.480072915554047,73.0044860839844,143.402069091797,45.3581237792969,248.999,2208.998,1180.992,"Pictures_Onset",1147.993,"09","Healthy",9,80,80,2,"no","up","Right",0,"FF","FL",8,"up",753,1,"Students09"
31,0.375425904989243,0.473092615604401,-60.6626853942871,145.146408081055,45.9913864135742,282.995,2558.003,1529.997,"Pictures_Onset",1496.998,"09","Salty",9,80,80,2,"no","up","Right",0,"FF","FL",8,"up",753,1,"Students09"
32,0.394648134708405,0.515759229660034,-51.5372161865234,134.468154907227,42.1055564880371,283.008,1019.994,0,"Pictures_Onset",-41.0110000000001,"09","Healthy",9,80,80,3,"no","up","Right",1,"FL","FF",8,"up",469,1,"Students09"
32,0.622442245483398,0.478897422552109,55.9733963012695,143.672698974609,45.4562797546387,416,1568.998,549.004,"Pictures_Onset",507.993,"09","Salty",9,80,80,3,"no","up","Right",1,"FL","FF",8,"up",469,1,"Students09"
32,0.625424981117249,0.482166677713394,57.3917465209961,142.864501953125,45.1616706848145,315.326333333333,2018.66366666667,1031.66766666667,"Pictures_Onset",990.656666666666,"09","Salty",9,80,80,3,"no","up","Right",1,"FL","FF",8,"up",469,1,"Students09"
32,0.623287916183472,0.483469694852829,56.4328727722168,142.566665649414,45.0531806945801,166.334333333333,2367.65566666667,1380.67266666667,"Pictures_Onset",1339.66166666667,"09","Salty",9,80,80,3,"no","up","Right",1,"FL","FF",8,"up",469,1,"Students09"
32,0.382856070995331,0.486666679382324,-57.1180305480957,141.748046875,44.7550010681152,349.005,2633.997,1614.003,"Pictures_Onset",1572.992,"09","Healthy",9,80,80,3,"no","up","Right",1,"FL","FF",8,"up",469,1,"Students09"
33,0.371055603027344,0.478622257709503,-62.6742210388184,143.764877319336,45.4877777099609,232.998,1304,248.998,"Pictures_Onset",242.995,"09","Salty",9,80,80,1,"no","down","Left",1,"FF","FL",9,"down",436,1,"Students09"
33,0.394287884235382,0.459166646003723,-51.7349967956543,148.609237670898,47.2536354064941,167.002,1587.008,532.006,"Pictures_Onset",526.003,"09","Salty",9,80,80,1,"no","down","Left",1,"FF","FL",9,"down",436,1,"Students09"
33,0.646810591220856,0.483651518821716,67.4754486083984,142.524475097656,45.0384826660156,349.336333333333,1869.67166666667,847.667666666667,"Pictures_Onset",841.664666666666,"09","Healthy",9,80,80,1,"no","down","Left",1,"FF","FL",9,"down",436,1,"Students09"
33,0.64888334274292,0.488116651773453,68.5438385009766,141.370651245117,44.6181678771973,148.992,2253.005,1198.003,"Pictures_Onset",1192,"09","Healthy",9,80,80,1,"no","down","Left",1,"FF","FL",9,"down",436,1,"Students09"
33,0.629733264446259,0.46726667881012,59.400447845459,146.619430541992,46.5290031433105,232.999,2436.006,1381.004,"Pictures_Onset",1375.001,"09","Healthy",9,80,80,1,"no","down","Left",1,"FF","FL",9,"down",436,1,"Students09"
33,0.367217987775803,0.461076885461807,-64.5083312988281,148.151794433594,47.0864067077637,200,2784.998,1729.996,"Pictures_Onset",1723.993,"09","Salty",9,80,80,1,"no","down","Left",1,"FF","FL",9,"down",436,1,"Students09"
34,0.389125019311905,0.471458345651627,-54.1187477111816,145.555847167969,46.1408348083496,115.994,1262.003,232.998,"Pictures_Onset",200.998,"09","Healthy",9,80,80,2,"no","down","Left",0,"FL","FF",9,"down",695,1,"Students09"
34,0.648352921009064,0.476019620895386,68.2871551513672,144.428833007812,45.7309799194336,267.008,1577.997,548.992,"Pictures_Onset",516.992,"09","Salty",9,80,80,2,"no","down","Left",0,"FL","FF",9,"down",695,1,"Students09"
34,0.629794955253601,0.489153832197189,59.4333305358887,141.142562866211,44.5340995788574,200,1878.003,848.998,"Pictures_Onset",816.998,"09","Salty",9,80,80,2,"no","down","Left",0,"FL","FF",9,"down",695,1,"Students09"
34,0.628500044345856,0.487249970436096,58.8411102294922,141.608596801758,44.7044486999512,183.001,2111.002,1081.997,"Pictures_Onset",1049.997,"09","Salty",9,80,80,2,"no","down","Left",0,"FL","FF",9,"down",695,1,"Students09"
34,0.364184230566025,0.488368421792984,-65.9679794311523,141.320358276367,44.598949432373,298.995,2477.005,1448,"Pictures_Onset",1416,"09","Healthy",9,80,80,2,"no","down","Left",0,"FL","FF",9,"down",695,1,"Students09"
34,0.389933347702026,0.469366699457169,-53.7023391723633,146.059661865234,46.3246688842773,149.005,2809.997,1780.992,"Pictures_Onset",1748.992,"09","Healthy",9,80,80,2,"no","down","Left",0,"FL","FF",9,"down",695,1,"Students09"
35,0.388950020074844,0.476591676473618,-54.2930908203125,144.282867431641,45.6775856018066,315.993,1319.002,266.996,"Pictures_Onset",257.997,"09","Salty",9,80,80,3,"no","up","Right",0,"FF","FL",9,"up",557,1,"Students09"
35,0.649642884731293,0.474626958370209,68.8208694458008,144.713836669922,45.8346862792969,332.992,1718.003,665.997,"Pictures_Onset",656.998,"09","Healthy",9,80,80,3,"no","up","Right",0,"FF","FL",9,"up",557,1,"Students09"
35,0.631819427013397,0.469666689634323,60.4158325195312,146.046661376953,46.3188896179199,184,2084.006,1032,"Pictures_Onset",1023.001,"09","Healthy",9,80,80,3,"no","up","Right",0,"FF","FL",9,"up",557,1,"Students09"
35,0.372986078262329,0.474708318710327,-61.8092308044434,144.737365722656,45.8438873291016,382.003,2351.002,1298.996,"Pictures_Onset",1289.997,"09","Salty",9,80,80,3,"no","up","Right",0,"FF","FL",9,"up",557,1,"Students09"
35,0.352166652679443,0.478291690349579,-71.6512451171875,143.867095947266,45.5262451171875,117.004,2783.002,1730.996,"Pictures_Onset",1721.997,"09","Salty",9,80,80,3,"no","up","Right",0,"FF","FL",9,"up",557,1,"Students09"
36,0.634264647960663,0.478852957487106,61.6226463317871,143.690002441406,45.4619598388672,265.997,1330.995,282.995,"Pictures_Onset",269.99,"09","Salty",9,80,80,4,"no","up","Right",1,"FL","FF",9,"up",601,1,"Students09"
36,0.352645814418793,0.486031264066696,-71.4232330322266,141.910720825195,44.8141670227051,249.997,1680,632,"Pictures_Onset",618.995,"09","Healthy",9,80,80,4,"no","up","Right",1,"FL","FF",9,"up",601,1,"Students09"
36,0.378885388374329,0.455937504768372,-59.0229187011719,149.434585571289,47.552188873291,249.997,1978.995,930.995,"Pictures_Onset",917.99,"09","Healthy",9,80,80,4,"no","up","Right",1,"FL","FF",9,"up",601,1,"Students09"
36,0.643700003623962,0.47313329577446,66.0522155761719,145.103225708008,45.9768829345703,232.999,2312.998,1264.998,"Pictures_Onset",1251.993,"09","Salty",9,80,80,4,"no","up","Right",1,"FL","FF",9,"up",601,1,"Students09"
36,0.613944470882416,0.468652755022049,51.9791679382324,146.292495727539,46.4093055725098,183.002,2578.995,1530.995,"Pictures_Onset",1517.99,"09","Salty",9,80,80,4,"no","up","Right",1,"FL","FF",9,"up",601,1,"Students09"
36,0.610694468021393,0.475041657686234,50.4224967956543,144.644027709961,45.8087501525879,184,2793.997,1745.997,"Pictures_Onset",1732.992,"09","Salty",9,80,80,4,"no","up","Right",1,"FL","FF",9,"up",601,1,"Students09"
37,0.373629659414291,0.467314779758453,-61.4217529296875,146.614547729492,46.5260124206543,283.674666666667,1297.997,264.999,"Pictures_Onset",236.992,"09","Salty",9,80,80,2,"no","down","Left",1,"FF","FL",10,"down",840,1,"Students09"
37,0.363770842552185,0.447062522172928,-66.0631256103516,151.636032104492,48.3525047302246,116.337333333333,1631.66866666667,631.668666666667,"Pictures_Onset",603.661666666667,"09","Salty",9,80,80,2,"no","down","Left",1,"FF","FL",10,"down",840,1,"Students09"
37,0.360944420099258,0.435763865709305,-67.4326400756836,154.500274658203,49.3973655700684,182.989,1781.005,748.007,"Pictures_Onset",720,"09","Salty",9,80,80,2,"no","down","Left",1,"FF","FL",10,"down",840,1,"Students09"
37,0.391200006008148,0.424466639757156,-53.1296615600586,157.300323486328,50.4143295288086,232.999,2014.003,981.005,"Pictures_Onset",952.998,"09","Salty",9,80,80,2,"no","down","Left",1,"FF","FL",10,"down",840,1,"Students09"
37,0.660649120807648,0.477008759975433,74.029655456543,144.148498535156,45.6301765441895,299.008,2330.995,1297.997,"Pictures_Onset",1269.99,"09","Healthy",9,80,80,2,"no","down","Left",1,"FF","FL",10,"down",840,1,"Students09"
37,0.633099973201752,0.484016597270966,60.9613342285156,142.428497314453,45.0026626586914,315.993,2663.002,1630.004,"Pictures_Onset",1601.997,"09","Healthy",9,80,80,2,"no","down","Left",1,"FF","FL",10,"down",840,1,"Students09"
38,0.375558853149414,0.477617591619492,-60.5984306335449,144.022842407227,45.5821495056152,265.997,1236.992,216.998,"Pictures_Onset",175.987,"09","Healthy",9,80,80,3,"no","down","Left",0,"FL","FF",10,"down",651,1,"Students09"
38,0.413510382175446,0.477406233549118,-42.6281318664551,144.040420532227,45.5882339477539,249.997,1552,532.006,"Pictures_Onset",490.995,"09","Healthy",9,80,80,3,"no","down","Left",0,"FL","FF",10,"down",651,1,"Students09"
38,0.629452347755432,0.449327409267426,59.3049507141113,151.076187133789,48.1512489318848,449.997,1884.992,864.998,"Pictures_Onset",823.987,"09","Salty",9,80,80,3,"no","down","Left",0,"FL","FF",10,"down",651,1,"Students09"
38,0.381541669368744,0.486341655254364,-57.6976699829102,141.838989257812,44.7884140014648,315.994,2450.995,1431.001,"Pictures_Onset",1389.99,"09","Healthy",9,80,80,3,"no","down","Left",0,"FL","FF",10,"down",651,1,"Students09"
38,0.36763334274292,0.499966681003571,-64.3395004272461,138.433181762695,43.5490036010742,148.660666666667,2800.998,1781.004,"Pictures_Onset",1739.993,"09","Healthy",9,80,80,3,"no","down","Left",0,"FL","FF",10,"down",651,1,"Students09"
39,0.637188851833344,0.465288907289505,62.9674415588379,147.068786621094,46.6918907165527,233.665666666667,1472.998,448.998,"Pictures_Onset",411.993,"09","Healthy",9,80,80,4,"no","up","Right",0,"FF","FL",10,"up",1650,1,"Students09"
39,0.672565281391144,0.475565195083618,79.6426773071289,144.53239440918,45.7677536010742,366.003,1755.994,731.994,"Pictures_Onset",694.989,"09","Healthy",9,80,80,4,"no","up","Right",0,"FF","FL",10,"up",1650,1,"Students09"
39,0.357369035482407,0.457892864942551,-69.2173843383789,148.934173583984,47.3716659545898,216.666666666667,2238.989,1214.989,"Pictures_Onset",1177.984,"09","Salty",9,80,80,4,"no","up","Right",0,"FF","FL",10,"up",1650,1,"Students09"
39,0.381572932004929,0.449447959661484,-57.6746826171875,151.05354309082,48.1425018310547,249.997,2504.998,1480.998,"Pictures_Onset",1443.993,"09","Salty",9,80,80,4,"no","up","Right",0,"FF","FL",10,"up",1650,1,"Students09"
39,0.34915155172348,0.442969709634781,-73.0407485961914,152.669082641602,48.7296905517578,167.002,2820.992,1796.992,"Pictures_Onset",1759.987,"09","Salty",9,80,80,4,"no","up","Right",0,"FF","FL",10,"up",1650,1,"Students09"
40,0.389348477125168,0.479787856340408,-54.0849990844727,143.471969604492,45.3816680908203,349.991,1256.998,232.998,"Pictures_Onset",195.993,"09","Healthy",9,80,80,1,"no","up","Right",1,"FL","FF",10,"up",556,1,"Students09"
40,0.361250013113022,0.500138878822327,-67.376106262207,138.326370239258,43.5094451904297,183.002,1656.998,632.998,"Pictures_Onset",595.993,"09","Healthy",9,80,80,1,"no","up","Right",1,"FL","FF",10,"up",556,1,"Students09"
40,0.630458354949951,0.44650000333786,59.8729133605957,151.808532714844,48.4143753051758,116.992,1905.997,881.997,"Pictures_Onset",844.992,"09","Salty",9,80,80,1,"no","up","Right",1,"FL","FF",10,"up",556,1,"Students09"
40,0.633618950843811,0.444345265626907,61.2289352416992,152.31559753418,48.6015510559082,216.013,2055.987,1031.987,"Pictures_Onset",994.982,"09","Salty",9,80,80,1,"no","up","Right",1,"FL","FF",10,"up",556,1,"Students09"
40,0.611884653568268,0.467884570360184,51.0128211975098,146.469360351562,46.4730796813965,200,2305.66466666667,1314.66366666667,"Pictures_Onset",1277.65866666667,"09","Salty",9,80,80,1,"no","up","Right",1,"FL","FF",10,"up",556,1,"Students09"
40,0.634124994277954,0.440055519342422,61.4518127441406,153.418334960938,49.0020866394043,182.003,2588.992,1564.992,"Pictures_Onset",1527.987,"09","Salty",9,80,80,1,"no","up","Right",1,"FL","FF",10,"up",556,1,"Students09"
41,0.378421008586884,0.468333333730698,-59.3063125610352,146.320190429688,46.4185943603516,300.006,1276.992,248.998,"Pictures_Onset",215.987,"09","Sugary",9,80,80,3,"no","up","Left",1,"FS","FL",11,"up",451,1,"Students09"
41,0.637212157249451,0.473787903785706,62.9796981811523,144.966659545898,45.9272727966309,166.003,1659.994,632,"Pictures_Onset",598.989,"09","Healthy",9,80,80,3,"no","up","Left",1,"FS","FL",11,"up",451,1,"Students09"
41,0.644305527210236,0.463277786970139,66.3887405395508,147.60124206543,46.8855590820312,182.003,1859.994,832,"Pictures_Onset",798.989,"09","Healthy",9,80,80,3,"no","up","Left",1,"FS","FL",11,"up",451,1,"Students09"
41,0.658944427967072,0.474222213029861,73.2566604614258,144.857772827148,45.8900032043457,116.006,2075.994,1048,"Pictures_Onset",1014.989,"09","Healthy",9,80,80,3,"no","up","Left",1,"FS","FL",11,"up",451,1,"Students09"
41,0.371055543422699,0.454499989748001,-62.702220916748,149.766677856445,47.6743354797363,233.011,2407.987,1379.993,"Pictures_Onset",1346.982,"09","Sugary",9,80,80,3,"no","up","Left",1,"FS","FL",11,"up",451,1,"Students09"
41,0.368333339691162,0.491060554981232,-64.0063705444336,140.676651000977,44.3645477294922,166.003,2674.995,1647.001,"Pictures_Onset",1613.99,"09","Sugary",9,80,80,3,"no","up","Left",1,"FS","FL",11,"up",451,1,"Students09"
42,0.614153861999512,0.451384574174881,52.0761566162109,150.590270996094,47.9737167358398,201.011,1312,281.997,"Pictures_Onset",250.995,"09","Sugary",9,80,80,4,"no","up","Left",0,"FL","FS",11,"up",621,1,"Students09"
42,0.373755544424057,0.472677767276764,-61.4583358764648,145.214096069336,46.0178909301758,232.999,1612.006,582.003,"Pictures_Onset",551.001,"09","Healthy",9,80,80,4,"no","up","Left",0,"FL","FS",11,"up",621,1,"Students09"
42,0.34308335185051,0.487416654825211,-75.9029159545898,141.537933349609,44.6787490844727,116.006,1879.002,848.999,"Pictures_Onset",817.997,"09","Healthy",9,80,80,4,"no","up","Left",0,"FL","FS",11,"up",621,1,"Students09"
42,0.647545456886292,0.515212118625641,67.8603057861328,134.560287475586,42.138484954834,167.002,2366.003,1336,"Pictures_Onset",1304.998,"09","Sugary",9,80,80,4,"no","up","Left",0,"FL","FS",11,"up",621,1,"Students09"
42,0.628714263439178,0.452396839857101,58.9757194519043,150.279678344727,47.8600006103516,333.004,2583.002,1552.999,"Pictures_Onset",1521.997,"09","Sugary",9,80,80,4,"no","up","Left",0,"FL","FS",11,"up",621,1,"Students09"
43,0.37774994969368,0.459166675806046,-59.5424957275391,148.58805847168,47.2452774047852,281.997,1248,216,"Pictures_Onset",186.995,"09","Sugary",9,80,80,1,"no","down","Right",0,"FS","FL",11,"down",512,1,"Students09"
43,0.652277767658234,0.477194428443909,70.091667175293,144.12028503418,45.6188926696777,182.003,1615.002,583.002,"Pictures_Onset",553.997,"09","Healthy",9,80,80,1,"no","down","Right",0,"FS","FL",11,"down",512,1,"Students09"
43,0.634627401828766,0.477862745523453,61.747257232666,143.937057495117,45.5515670776367,265.997,1912.998,880.998,"Pictures_Onset",851.993,"09","Healthy",9,80,80,1,"no","down","Right",0,"FS","FL",11,"down",512,1,"Students09"
43,0.640848577022552,0.491575747728348,64.6843948364258,140.537872314453,44.3133316040039,166.003,2263.002,1231.002,"Pictures_Onset",1201.997,"09","Healthy",9,80,80,1,"no","down","Right",0,"FS","FL",11,"down",512,1,"Students09"
43,0.37222221493721,0.467092633247375,-62.106575012207,146.596008300781,46.5206451416016,282.663666666666,2528.998,1496.998,"Pictures_Onset",1467.993,"09","Sugary",9,80,80,1,"no","down","Right",0,"FS","FL",11,"down",512,1,"Students09"
43,0.369500041007996,0.446277767419815,-63.3575859069824,151.867248535156,48.439811706543,132.992,2845.005,1813.005,"Pictures_Onset",1784,"09","Sugary",9,80,80,1,"no","down","Right",0,"FS","FL",11,"down",512,1,"Students09"
44,0.397141009569168,0.467846125364304,-50.4670448303223,146.457168579102,46.4701309204102,200,1236.006,216,"Pictures_Onset",175.001,"09","Healthy",9,80,80,2,"no","down","Right",1,"FL","FS",11,"down",535,1,"Students09"
44,0.63699996471405,0.474249988794327,62.8483352661133,144.862503051758,45.8866653442383,117.005,1502.003,481.997,"Pictures_Onset",440.998,"09","Sugary",9,80,80,2,"no","down","Right",1,"FL","FS",11,"down",535,1,"Students09"
44,0.642564177513123,0.472448706626892,65.5149993896484,145.301025390625,46.0482025146484,200,1652.006,632,"Pictures_Onset",591.001,"09","Sugary",9,80,80,2,"no","down","Right",1,"FL","FS",11,"down",535,1,"Students09"
44,0.647916674613953,0.442850023508072,67.9690017700195,152.714004516602,48.7449913024902,314.995,1886.003,865.997,"Pictures_Onset",824.998,"09","Sugary",9,80,80,2,"no","down","Right",1,"FL","FS",11,"down",535,1,"Students09"
44,0.38376185297966,0.487119048833847,-56.7136459350586,141.611602783203,44.7067451477051,332.992,2285.005,1264.999,"Pictures_Onset",1224,"09","Healthy",9,80,80,2,"no","down","Right",1,"FL","FS",11,"down",535,1,"Students09"
44,0.411819487810135,0.506902754306793,-43.4454154968262,136.70361328125,42.9201393127441,182.003,2718.003,1697.997,"Pictures_Onset",1656.998,"09","Healthy",9,80,80,2,"no","down","Right",1,"FL","FS",11,"down",535,1,"Students09"
45,0.378733336925507,0.483750015497208,-59.0183334350586,142.52033996582,45.0373306274414,149.99,1483.008,432.998,"Pictures_Onset",422.003,"09","Sugary",9,80,80,4,"no","up","Left",1,"FS","FL",12,"up",669,1,"Students09"
45,0.360749989748001,0.461444467306137,-67.5804214477539,148.052230834961,47.0487480163574,183.346333333333,1665.66466666667,648.666666666667,"Pictures_Onset",637.671666666667,"09","Sugary",9,80,80,4,"no","up","Left",1,"FS","FL",12,"up",669,1,"Students09"
45,0.608500003814697,0.466666668653488,49.4483337402344,146.771240234375,46.5837516784668,182.003,1950.003,899.993,"Pictures_Onset",888.998,"09","Healthy",9,80,80,4,"no","up","Left",1,"FS","FL",12,"up",669,1,"Students09"
45,0.649399995803833,0.482133388519287,68.7760009765625,142.86767578125,45.1613388061523,149.004,2199.002,1148.992,"Pictures_Onset",1137.997,"09","Healthy",9,80,80,4,"no","up","Left",1,"FS","FL",12,"up",669,1,"Students09"
45,0.345833301544189,0.462875008583069,-74.651252746582,147.676666259766,46.9141693115234,183.002,2448,1397.99,"Pictures_Onset",1386.995,"09","Sugary",9,80,80,4,"no","up","Left",1,"FS","FL",12,"up",669,1,"Students09"
45,0.376575767993927,0.451121211051941,-60.051212310791,150.650146484375,47.995906829834,165.99,2698.01,1648,"Pictures_Onset",1637.005,"09","Sugary",9,80,80,4,"no","up","Left",1,"FS","FL",12,"up",669,1,"Students09"
46,0.628033339977264,0.445199966430664,58.6539993286133,152.114013671875,48.5276641845703,232,1352.998,316.992,"Pictures_Onset",291.993,"09","Sugary",9,80,80,1,"no","up","Left",0,"FL","FS",12,"up",500,1,"Students09"
46,0.386980414390564,0.463882356882095,-55.1851959228516,147.452331542969,46.8305931091309,266.328333333333,1718.66966666667,715.662666666666,"Pictures_Onset",690.663666666666,"09","Healthy",9,80,80,1,"no","up","Left",0,"FL","FS",12,"up",500,1,"Students09"
46,0.363928586244583,0.469500005245209,-66.1290435791016,146.031661987305,46.314998626709,100.006,2033.997,997.991,"Pictures_Onset",972.992,"09","Healthy",9,80,80,1,"no","up","Left",0,"FL","FS",12,"up",500,1,"Students09"
46,0.357666671276093,0.477458357810974,-69.0406265258789,144.076965332031,45.602710723877,249.329333333334,2167.66866666667,1164.66066666667,"Pictures_Onset",1139.66166666667,"09","Healthy",9,80,80,1,"no","up","Left",0,"FL","FS",12,"up",500,1,"Students09"
46,0.652283370494843,0.444500029087067,70.1255035400391,152.315155029297,48.6023330688477,150.003,2534.003,1497.997,"Pictures_Onset",1472.998,"09","Sugary",9,80,80,1,"no","up","Left",0,"FL","FS",12,"up",500,1,"Students09"
46,0.624988913536072,0.437422215938568,57.1706695556641,154.075576782227,49.2410011291504,232.999,2750.003,1713.997,"Pictures_Onset",1688.998,"09","Sugary",9,80,80,1,"no","up","Left",0,"FL","FS",12,"up",500,1,"Students09"
47,0.360809534788132,0.472666680812836,-67.4975051879883,145.268569946289,46.0365524291992,216.666666666667,1319.002,298.996,"Pictures_Onset",257.997,"09","Sugary",9,80,80,2,"no","down","Right",0,"FS","FL",12,"down",814,1,"Students09"
47,0.378129631280899,0.461574077606201,-59.3042526245117,148.052398681641,47.049072265625,133.005,1568.998,548.992,"Pictures_Onset",507.993,"09","Sugary",9,80,80,2,"no","down","Right",0,"FS","FL",12,"down",814,1,"Students09"
47,0.655488848686218,0.485711127519608,71.5571136474609,141.986236572266,44.8419990539551,233.012,1784.998,764.992,"Pictures_Onset",723.993,"09","Healthy",9,80,80,2,"no","down","Right",0,"FS","FL",12,"down",814,1,"Students09"
47,0.62715220451355,0.494456499814987,58.1968002319336,139.767456054688,44.0339851379395,366.003,2101.005,1080.999,"Pictures_Onset",1040,"09","Healthy",9,80,80,2,"no","down","Right",0,"FS","FL",12,"down",814,1,"Students09"
47,0.618893921375275,0.436606049537659,54.3018188476562,154.253646850586,49.3078842163086,167.001,2517.005,1496.999,"Pictures_Onset",1456,"09","Healthy",9,80,80,2,"no","down","Right",0,"FS","FL",12,"down",814,1,"Students09"
47,0.368305534124374,0.45590278506279,-64.0047225952148,149.46110534668,47.5644493103027,182.003,2784,1763.994,"Pictures_Onset",1722.995,"09","Sugary",9,80,80,2,"no","down","Right",0,"FS","FL",12,"down",814,1,"Students09"
48,0.62192314863205,0.444884598255157,55.7107696533203,152.185638427734,48.5532073974609,199.667666666667,1322.01,300.007,"Pictures_Onset",261.005,"09","Sugary",9,80,80,3,"no","down","Right",1,"FL","FS",12,"down",573,1,"Students09"
48,0.369539231061935,0.472931414842606,-63.443531036377,145.224807739258,46.0185317993164,266.663666666667,1604.006,582.003,"Pictures_Onset",543.001,"09","Healthy",9,80,80,3,"no","down","Right",1,"FL","FS",12,"down",573,1,"Students09"
48,0.356333315372467,0.470447927713394,-69.6091613769531,145.816955566406,46.2358360290527,250.01,1904,881.997,"Pictures_Onset",842.995,"09","Healthy",9,80,80,3,"no","down","Right",1,"FL","FS",12,"down",573,1,"Students09"
48,0.649512827396393,0.463743567466736,68.7157669067383,147.464080810547,46.8358955383301,199.001,2354.01,1332.007,"Pictures_Onset",1293.005,"09","Sugary",9,80,80,3,"no","down","Right",1,"FL","FS",12,"down",573,1,"Students09"
48,0.626786708831787,0.454833328723907,58.0437316894531,149.693786621094,47.6459312438965,399.001,2586.01,1564.007,"Pictures_Onset",1525.005,"09","Sugary",9,80,80,3,"no","down","Right",1,"FL","FS",12,"down",573,1,"Students09"
49,0.377499967813492,0.456147015094757,-59.6738243103027,149.369018554688,47.5296058654785,265.664666666667,1245.005,216,"Pictures_Onset",184,"09","Sugary",9,80,80,1,"no","up","Left",1,"FS","FL",13,"up",540,1,"Students09"
49,0.382450014352798,0.488533347845078,-57.318000793457,141.283325195312,44.5856704711914,148.992,1545.011,516.006,"Pictures_Onset",484.006,"09","Sugary",9,80,80,1,"no","up","Left",1,"FS","FL",13,"up",540,1,"Students09"
49,0.649958312511444,0.470270872116089,68.9904251098633,145.848556518555,46.2493743896484,381.99,1794.01,765.005,"Pictures_Onset",733.005,"09","Healthy",9,80,80,1,"no","up","Left",1,"FS","FL",13,"up",540,1,"Students09"
49,0.647491693496704,0.481483310461044,67.8149261474609,143.051834106445,45.2285842895508,316.338333333334,2209.66466666667,1214.66966666667,"Pictures_Onset",1182.66966666667,"09","Healthy",9,80,80,1,"no","up","Left",1,"FS","FL",13,"up",540,1,"Students09"
49,0.616638958454132,0.459374994039536,53.256519317627,148.573471069336,47.2397193908691,183.668666666666,2576,1546.995,"Pictures_Onset",1514.995,"09","Healthy",9,80,80,1,"no","up","Left",1,"FS","FL",13,"up",540,1,"Students09"
49,0.63929158449173,0.459374994039536,63.9316673278809,148.609588623047,47.254581451416,182.989,2793.011,1764.006,"Pictures_Onset",1732.006,"09","Healthy",9,80,80,1,"no","up","Left",1,"FS","FL",13,"up",540,1,"Students09"
50,0.389999985694885,0.467111110687256,-53.8033294677734,146.630737304688,46.5309295654297,132.992,1253.005,232,"Pictures_Onset",192,"09","Healthy",9,80,80,2,"no","up","Left",0,"FL","FS",13,"up",536,1,"Students09"
50,0.386285722255707,0.471095234155655,-55.4959487915039,145.639038085938,46.1716651916504,100.007,1419.66166666667,432.666666666667,"Pictures_Onset",392.666666666667,"09","Healthy",9,80,80,2,"no","up","Left",0,"FL","FS",13,"up",536,1,"Students09"
50,0.38497918844223,0.471291661262512,-56.1556205749512,145.5966796875,46.1558380126953,116.007,1552.998,531.993,"Pictures_Onset",491.993,"09","Healthy",9,80,80,2,"no","up","Left",0,"FL","FS",13,"up",536,1,"Students09"
50,0.649435937404633,0.456435859203339,68.6808929443359,149.332427978516,47.5152549743652,199.001,1785.997,764.992,"Pictures_Onset",724.992,"09","Sugary",9,80,80,2,"no","up","Left",0,"FL","FS",13,"up",536,1,"Students09"
50,0.630931377410889,0.493137240409851,59.9855880737305,140.152847290039,44.1744117736816,267.008,2034.995,1013.99,"Pictures_Onset",973.99,"09","Sugary",9,80,80,2,"no","up","Left",0,"FL","FS",13,"up",536,1,"Students09"
50,0.648256361484528,0.49557688832283,68.1021728515625,139.532821655273,43.9511451721191,199.001,2335.002,1313.997,"Pictures_Onset",1273.997,"09","Sugary",9,80,80,2,"no","up","Left",0,"FL","FS",13,"up",536,1,"Students09"
50,0.377766668796539,0.475755542516708,-59.5343284606934,144.450988769531,45.7386589050293,233.997,2633.997,1612.992,"Pictures_Onset",1572.992,"09","Healthy",9,80,80,2,"no","up","Left",0,"FL","FS",13,"up",536,1,"Students09"
51,0.376972228288651,0.467180579900742,-59.9422264099121,146.636245727539,46.5340270996094,184,1409.011,365.005,"Pictures_Onset",348.006,"09","Sugary",9,80,80,3,"no","down","Right",0,"FS","FL",13,"down",549,1,"Students09"
51,0.630416631698608,0.46735417842865,59.7747917175293,146.581756591797,46.5134391784668,248.999,1692.006,648,"Pictures_Onset",631.001,"09","Healthy",9,80,80,3,"no","down","Right",0,"FS","FL",13,"down",549,1,"Students09"
51,0.380050003528595,0.469999969005585,-58.3648300170898,145.918487548828,46.2721633911133,150.003,2579.008,1535.002,"Pictures_Onset",1518.003,"09","Sugary",9,80,80,3,"no","down","Right",0,"FS","FL",13,"down",549,1,"Students09"
51,0.638045430183411,0.461242407560349,63.4025764465332,148.112411499023,47.072265625,166.004,2812.006,1768,"Pictures_Onset",1751.001,"09","Healthy",9,80,80,3,"no","down","Right",0,"FS","FL",13,"down",549,1,"Students09"
52,0.394886374473572,0.461295425891876,-51.4790916442871,148.103179931641,47.067569732666,348.992,1331.008,282.995,"Pictures_Onset",270.003,"09","Healthy",9,80,80,4,"no","down","Right",1,"FL","FS",13,"down",603,1,"Students09"
52,0.661388874053955,0.451888889074326,74.444450378418,150.412780761719,47.9105567932129,132.007,1748.006,699.993,"Pictures_Onset",687.001,"09","Sugary",9,80,80,4,"no","down","Right",1,"FL","FS",13,"down",603,1,"Students09"
52,0.636812567710876,0.478499978780746,62.8191680908203,143.795837402344,45.5006217956543,117.005,2080,1031.987,"Pictures_Onset",1018.995,"09","Sugary",9,80,80,4,"no","down","Right",1,"FL","FS",13,"down",603,1,"Students09"
52,0.367518544197083,0.476675927639008,-64.3975982666016,144.253326416016,45.6678657531738,282.996,2396.006,1347.993,"Pictures_Onset",1335.001,"09","Healthy",9,80,80,4,"no","down","Right",1,"FL","FS",13,"down",603,1,"Students09"
52,0.351921588182449,0.493882417678833,-71.744514465332,139.983139038086,44.1129417419434,265.997,2712.013,1664,"Pictures_Onset",1651.008,"09","Healthy",9,80,80,4,"no","down","Right",1,"FL","FS",13,"down",603,1,"Students09"
53,0.393192321062088,0.474166661500931,-52.2025718688965,144.883834838867,45.8964080810547,200,1270.003,249.997,"Pictures_Onset",208.998,"09","Sugary",9,80,80,2,"no","up","Left",1,"FS","FL",14,"up",399,1,"Students09"
53,0.372322201728821,0.49845552444458,-62.0514450073242,138.813217163086,43.6858940124512,233.664666666667,1519.002,498.996,"Pictures_Onset",457.997,"09","Sugary",9,80,80,2,"no","up","Left",1,"FS","FL",14,"up",399,1,"Students09"
53,0.633907377719879,0.46275919675827,61.4074630737305,147.705749511719,46.923828125,432.999,1984.998,964.992,"Pictures_Onset",923.993,"09","Healthy",9,80,80,2,"no","up","Left",1,"FS","FL",14,"up",399,1,"Students09"
53,0.368916660547256,0.479374974966049,-63.7645797729492,143.555633544922,45.4118766784668,116.660666666666,2518.003,1497.997,"Pictures_Onset",1456.998,"09","Sugary",9,80,80,2,"no","up","Left",1,"FS","FL",14,"up",399,1,"Students09"
53,0.359683334827423,0.478700011968613,-68.0843353271484,143.738998413086,45.479663848877,148.992,2668.006,1648,"Pictures_Onset",1607.001,"09","Sugary",9,80,80,2,"no","up","Left",1,"FS","FL",14,"up",399,1,"Students09"
53,0.346958339214325,0.486166656017303,-74.0697937011719,141.888336181641,44.8047904968262,116.007,2850.995,1830.989,"Pictures_Onset",1789.99,"09","Sugary",9,80,80,2,"no","up","Left",1,"FS","FL",14,"up",399,1,"Students09"
54,0.369333326816559,0.470855593681335,-63.4702186584473,145.717864990234,46.2008857727051,232.666666666667,1240,216,"Pictures_Onset",178.995,"09","Healthy",9,80,80,3,"no","up","Left",0,"FL","FS",14,"up",716,1,"Students09"
54,0.640392184257507,0.475117623806,64.4861755371094,144.602935791016,45.7921600341797,266.01,1588.992,564.992,"Pictures_Onset",527.987,"09","Sugary",9,80,80,3,"no","up","Left",0,"FL","FS",14,"up",716,1,"Students09"
54,0.624763906002045,0.481152772903442,57.0651397705078,143.101379394531,45.2480583190918,182.657666666667,1888.998,864.998,"Pictures_Onset",827.993,"09","Sugary",9,80,80,3,"no","up","Left",0,"FL","FS",14,"up",716,1,"Students09"
54,0.355166673660278,0.450370371341705,-70.2020416259766,150.848693847656,48.0668525695801,132.337333333333,2172.66066666667,1180.66066666667,"Pictures_Onset",1143.65566666667,"09","Healthy",9,80,80,3,"no","up","Left",0,"FL","FS",14,"up",716,1,"Students09"
54,0.368124961853027,0.445152759552002,-64.0786056518555,152.146957397461,48.5386085510254,184.331333333334,2420.66066666667,1430.65666666667,"Pictures_Onset",1393.65166666667,"09","Healthy",9,80,80,3,"no","up","Left",0,"FL","FS",14,"up",716,1,"Students09"
54,0.659958302974701,0.457875043153763,73.777229309082,148.957504272461,47.3787498474121,183.001,2803.994,1779.994,"Pictures_Onset",1742.989,"09","Sugary",9,80,80,3,"no","up","Left",0,"FL","FS",14,"up",716,1,"Students09"
55,0.386941194534302,0.478843122720718,-55.2406845092773,143.706665039062,45.4681396484375,267.008,1263.002,232.999,"Pictures_Onset",201.997,"09","Sugary",9,80,80,4,"no","down","Right",0,"FS","FL",14,"down",561,1,"Students09"
55,0.375111132860184,0.497972160577774,-60.7854156494141,138.924591064453,43.7265205383301,183.668666666667,1579.008,549.005,"Pictures_Onset",518.003,"09","Sugary",9,80,80,4,"no","down","Right",0,"FS","FL",14,"down",561,1,"Students09"
55,0.643738090991974,0.470833271741867,66.1342926025391,145.713119506836,46.1985702514648,331.993,1896.013,866.01,"Pictures_Onset",835.008,"09","Healthy",9,80,80,4,"no","down","Right",0,"FS","FL",14,"down",561,1,"Students09"
55,0.364511907100677,0.462488114833832,-65.7165451049805,147.804397583008,46.9600028991699,216.999,2345.011,1315.008,"Pictures_Onset",1284.006,"09","Sugary",9,80,80,4,"no","down","Right",0,"FS","FL",14,"down",561,1,"Students09"
55,0.348666667938232,0.455345213413239,-73.2630996704102,149.539169311523,47.588809967041,216.666666666667,2594.01,1564.007,"Pictures_Onset",1533.005,"09","Sugary",9,80,80,4,"no","down","Right",0,"FS","FL",14,"down",561,1,"Students09"
55,0.333777755498886,0.461888909339905,-80.3322219848633,147.917785644531,47.0016632080078,133.005,2844.006,1814.003,"Pictures_Onset",1783.001,"09","Sugary",9,80,80,4,"no","down","Right",0,"FS","FL",14,"down",561,1,"Students09"
56,0.36191114783287,0.468055576086044,-66.9906692504883,146.399795532227,46.4474449157715,232,1264.998,234.009,"Pictures_Onset",203.993,"09","Healthy",9,80,80,1,"no","down","Right",1,"FL","FS",14,"down",613,1,"Students09"
56,0.627544462680817,0.47079998254776,58.3632202148438,145.737655639648,46.2081069946289,232,1597.99,567.001,"Pictures_Onset",536.985,"09","Sugary",9,80,80,1,"no","down","Right",1,"FL","FS",14,"down",613,1,"Students09"
56,0.620000004768372,0.507549941539764,54.8828353881836,136.493988037109,42.8419990539551,148.992,1880.998,850.009,"Pictures_Onset",819.993,"09","Sugary",9,80,80,1,"no","down","Right",1,"FL","FS",14,"down",613,1,"Students09"
56,0.646222233772278,0.508736073970795,67.2633285522461,136.231674194336,42.7483367919922,182.989,2096.998,1066.009,"Pictures_Onset",1035.993,"09","Sugary",9,80,80,1,"no","down","Right",1,"FL","FS",14,"down",613,1,"Students09"
56,0.365618079900742,0.477486133575439,-65.2521438598633,144.038681030273,45.5890998840332,383.668666666666,2378.995,1348.006,"Pictures_Onset",1317.99,"09","Healthy",9,80,80,1,"no","down","Right",1,"FL","FS",14,"down",613,1,"Students09"
57,0.387749999761581,0.483260422945023,-54.8289527893066,142.59001159668,45.0608329772949,249.997,1233.997,200,"Pictures_Onset",172.992,"09","Sugary",9,80,80,3,"no","up","Left",1,"FS","FL",15,"up",618,1,"Students09"
57,0.634317696094513,0.481453120708466,61.6121788024902,143.037780761719,45.2248992919922,515.674666666667,1682.995,648.998,"Pictures_Onset",621.99,"09","Healthy",9,80,80,3,"no","up","Left",1,"FS","FL",15,"up",618,1,"Students09"
57,0.623388886451721,0.471847295761108,56.4283409118652,145.433898925781,46.0948600769043,183.002,2232,1198.003,"Pictures_Onset",1170.995,"09","Healthy",9,80,80,3,"no","up","Left",1,"FS","FL",15,"up",618,1,"Students09"
57,0.605757594108582,0.471090912818909,48.2315101623535,145.645156860352,46.1737861633301,166.335333333333,2448.66666666667,1447.66766666667,"Pictures_Onset",1420.65966666667,"09","Healthy",9,80,80,3,"no","up","Left",1,"FS","FL",15,"up",618,1,"Students09"
57,0.369697868824005,0.472479164600372,-63.3525009155273,145.298965454102,46.048225402832,249.997,2714.995,1680.998,"Pictures_Onset",1653.99,"09","Sugary",9,80,80,3,"no","up","Left",1,"FS","FL",15,"up",618,1,"Students09"
58,0.376596510410309,0.483719319105148,-60.0605163574219,142.464050292969,45.0152702331543,299.993,1266.01,233.012,"Pictures_Onset",205.005,"09","Healthy",9,80,80,4,"no","up","Left",0,"FL","FS",15,"up",604,1,"Students09"
58,0.627796411514282,0.486796259880066,58.5561103820801,141.729721069336,44.7491607666016,281.997,1649.011,616.013,"Pictures_Onset",588.006,"09","Sugary",9,80,80,4,"no","up","Left",0,"FL","FS",15,"up",604,1,"Students09"
58,0.637999892234802,0.477311134338379,63.3319969177246,144.060882568359,45.5963325500488,232.998,1965.005,932.007,"Pictures_Onset",904,"09","Sugary",9,80,80,4,"no","up","Left",0,"FL","FS",15,"up",604,1,"Students09"
58,0.365266680717468,0.486744493246078,-65.4606704711914,141.696792602539,44.7371101379395,233.012,2264.998,1232,"Pictures_Onset",1203.993,"09","Healthy",9,80,80,4,"no","up","Left",0,"FL","FS",15,"up",604,1,"Students09"
58,0.662530303001404,0.468909084796906,74.9634857177734,146.181991577148,46.3693962097168,167.002,2630.003,1597.005,"Pictures_Onset",1568.998,"09","Sugary",9,80,80,4,"no","up","Left",0,"FL","FS",15,"up",604,1,"Students09"
58,0.661142885684967,0.482452392578125,74.2657089233398,142.755966186523,45.1230964660645,100.007,2830.003,1797.005,"Pictures_Onset",1768.998,"09","Sugary",9,80,80,4,"no","up","Left",0,"FL","FS",15,"up",604,1,"Students09"
59,0.380156904459,0.487892150878906,-58.3894119262695,141.474609375,44.653923034668,266.996,1252.006,216,"Pictures_Onset",191.001,"09","Sugary",9,80,80,1,"no","down","Right",0,"FS","FL",15,"down",634,1,"Students09"
59,0.626377820968628,0.484644442796707,57.8202247619629,142.235336303711,44.9322242736816,233.997,1701.005,664.999,"Pictures_Onset",640,"09","Healthy",9,80,80,1,"no","down","Right",0,"FS","FL",15,"down",634,1,"Students09"
59,0.627666652202606,0.491714268922806,58.4019088745117,140.492385864258,44.2971458435059,100.006,1968,931.994,"Pictures_Onset",906.995,"09","Healthy",9,80,80,1,"no","down","Right",0,"FS","FL",15,"down",634,1,"Students09"
59,0.653283298015594,0.504500031471252,70.536994934082,137.290740966797,43.1328315734863,317.005,2101.005,1064.999,"Pictures_Onset",1040,"09","Healthy",9,80,80,1,"no","down","Right",0,"FS","FL",15,"down",634,1,"Students09"
59,0.363195657730103,0.470224589109421,-66.4084701538086,145.868194580078,46.2544937133789,366.003,2517.005,1480.999,"Pictures_Onset",1456,"09","Sugary",9,80,80,1,"no","down","Right",0,"FS","FL",15,"down",634,1,"Students09"
60,0.385622799396515,0.480956166982651,-55.8505210876465,143.172180175781,45.2729797363281,299.994,1259.008,232,"Pictures_Onset",198.003,"09","Healthy",9,80,80,2,"no","down","Right",1,"FL","FS",15,"down",535,1,"Students09"
60,0.375259220600128,0.491537034511566,-60.769172668457,140.525466918945,44.3091659545898,284.006,1592,564.992,"Pictures_Onset",530.995,"09","Healthy",9,80,80,2,"no","down","Right",1,"FL","FS",15,"down",535,1,"Students09"
60,0.352566659450531,0.479766666889191,-71.4153366088867,143.452667236328,45.3773345947266,151.001,1925.005,897.997,"Pictures_Onset",864,"09","Healthy",9,80,80,2,"no","down","Right",1,"FL","FS",15,"down",535,1,"Students09"
60,0.648587346076965,0.476388871669769,68.3542022705078,144.335723876953,45.696346282959,332.006,2159.002,1131.994,"Pictures_Onset",1097.997,"09","Sugary",9,80,80,2,"no","down","Right",1,"FL","FS",15,"down",535,1,"Students09"
60,0.620569467544556,0.478319436311722,55.0693016052246,143.83805847168,45.5131950378418,182.338333333334,2640.998,1613.99,"Pictures_Onset",1579.993,"09","Sugary",9,80,80,2,"no","down","Right",1,"FL","FS",15,"down",535,1,"Students09"
61,0.379555553197861,0.474111109972,-58.7428817749023,144.905776977539,45.904670715332,232.998,1295.002,266.996,"Pictures_Onset",233.997,"09","Sugary",9,80,80,4,"no","down","Left",1,"FS","FL",16,"down",628,1,"Students09"
61,0.621692955493927,0.475526243448257,55.6355247497559,144.500701904297,45.7576370239258,298.995,1611.008,583.002,"Pictures_Onset",550.003,"09","Healthy",9,80,80,4,"no","down","Left",1,"FS","FL",16,"down",628,1,"Students09"
61,0.348882406949997,0.471784323453903,-73.1292114257812,145.466278076172,46.1074447631836,265.997,2043.008,1015.002,"Pictures_Onset",982.003,"09","Sugary",9,80,80,4,"no","down","Left",1,"FS","FL",16,"down",628,1,"Students09"
61,0.40776664018631,0.483433336019516,-45.2576675415039,142.564987182617,45.0523338317871,149.991,2377.011,1349.005,"Pictures_Onset",1316.006,"09","Sugary",9,80,80,4,"no","down","Left",1,"FS","FL",16,"down",628,1,"Students09"
61,0.624479174613953,0.482874989509583,56.9747886657715,142.685409545898,45.0968780517578,116.007,2742.003,1713.997,"Pictures_Onset",1680.998,"09","Healthy",9,80,80,4,"no","down","Left",1,"FS","FL",16,"down",628,1,"Students09"
62,0.376910269260406,0.474230766296387,-59.9515342712402,144.921936035156,45.9099998474121,200,1267.008,232.998,"Pictures_Onset",206.003,"09","Healthy",9,80,80,1,"no","down","Left",0,"FL","FS",16,"down",780,1,"Students09"
62,0.42044997215271,0.450633347034454,-39.4421615600586,150.797149658203,48.0466690063477,150.335333333333,1649.67766666667,648.666666666667,"Pictures_Onset",621.671666666667,"09","Healthy",9,80,80,1,"no","down","Left",0,"FL","FS",16,"down",780,1,"Students09"
62,0.624233305454254,0.46383336186409,56.890007019043,147.454666137695,46.8308868408203,232.666666666666,1916.006,881.996,"Pictures_Onset",855.001,"09","Sugary",9,80,80,1,"no","down","Left",0,"FL","FS",16,"down",780,1,"Students09"
62,0.639180541038513,0.477986127138138,63.9300079345703,143.94596862793,45.5568084716797,101.005,2181.67166666667,1181.65866666667,"Pictures_Onset",1154.66366666667,"09","Sugary",9,80,80,1,"no","down","Left",0,"FL","FS",16,"down",780,1,"Students09"
62,0.641185224056244,0.46511110663414,64.9574127197266,147.125,46.7116622924805,134.003,2315.008,1280.998,"Pictures_Onset",1254.003,"09","Sugary",9,80,80,1,"no","down","Left",0,"FL","FS",16,"down",780,1,"Students09"
62,0.392135798931122,0.46482715010643,-52.7249336242676,147.212326049805,46.7428398132324,432.999,2532.006,1497.996,"Pictures_Onset",1471.001,"09","Healthy",9,80,80,1,"no","down","Left",0,"FL","FS",16,"down",780,1,"Students09"
63,0.383861124515533,0.481583267450333,-56.6728706359863,143.033706665039,45.2224044799805,283.008,1281.997,248.999,"Pictures_Onset",220.992,"09","Sugary",9,80,80,2,"no","up","Right",0,"FS","FL",16,"up",605,1,"Students09"
63,0.644066631793976,0.467333287000656,66.1953353881836,146.575988769531,46.5111122131348,232.998,1648,615.002,"Pictures_Onset",586.995,"09","Healthy",9,80,80,2,"no","up","Right",0,"FS","FL",16,"up",605,1,"Students09"
63,0.617000102996826,0.463718742132187,53.4340629577637,147.506973266602,46.8499984741211,248.999,1948.006,915.008,"Pictures_Onset",887.001,"09","Healthy",9,80,80,2,"no","up","Right",0,"FS","FL",16,"up",605,1,"Students09"
63,0.367148786783218,0.471785724163055,-64.6255950927734,145.473861694336,46.1111335754395,448.998,2397.005,1364.007,"Pictures_Onset",1336,"09","Sugary",9,80,80,2,"no","up","Right",0,"FS","FL",16,"up",605,1,"Students09"
64,0.629708349704742,0.476416677236557,59.4375038146973,144.303329467773,45.6841735839844,183.001,1482.01,448.999,"Pictures_Onset",421.005,"09","Sugary",9,80,80,3,"no","up","Right",1,"FL","FS",16,"up",565,1,"Students09"
64,0.388733327388763,0.483033329248428,-54.4600028991699,142.652008056641,45.0839958190918,232.998,1781.005,747.994,"Pictures_Onset",720,"09","Healthy",9,80,80,3,"no","up","Right",1,"FL","FS",16,"up",565,1,"Students09"
64,0.652799963951111,0.489466696977615,70.257438659668,141.035430908203,44.493221282959,232.013,2656,1622.989,"Pictures_Onset",1594.995,"09","Sugary",9,80,80,3,"no","up","Right",1,"FL","FS",16,"up",565,1,"Students09"
65,0.381599962711334,0.468249976634979,-57.739330291748,146.326507568359,46.4218330383301,150.003,1312,265.997,"Pictures_Onset",250.995,"09","Sugary",9,80,80,1,"no","down","Left",1,"FS","FL",17,"down",613,1,"Students09"
65,0.38400000333786,0.471047669649124,-56.5552368164062,145.649520874023,46.1752395629883,100.006,1495.002,448.999,"Pictures_Onset",433.997,"09","Sugary",9,80,80,1,"no","down","Left",1,"FS","FL",17,"down",613,1,"Students09"
65,0.660156905651093,0.466803938150406,73.8341217041016,146.696273803711,46.5562744140625,265.997,1678.003,632,"Pictures_Onset",616.998,"09","Healthy",9,80,80,1,"no","down","Left",1,"FS","FL",17,"down",613,1,"Students09"
65,0.645622313022614,0.46907776594162,66.9177780151367,146.124328613281,46.3480033874512,234.01,1976.998,930.995,"Pictures_Onset",915.993,"09","Healthy",9,80,80,1,"no","down","Left",1,"FS","FL",17,"down",613,1,"Students09"
65,0.643249988555908,0.492821425199509,65.8634567260742,140.19938659668,44.192741394043,216.999,2244.006,1198.003,"Pictures_Onset",1183.001,"09","Healthy",9,80,80,1,"no","down","Left",1,"FS","FL",17,"down",613,1,"Students09"
65,0.356979936361313,0.455680042505264,-69.3627395629883,149.470077514648,47.5652008056641,399.002,2544,1497.997,"Pictures_Onset",1482.995,"09","Sugary",9,80,80,1,"no","down","Left",1,"FS","FL",17,"down",613,1,"Students09"
66,0.384999990463257,0.467785686254501,-56.0872573852539,146.501068115234,46.483814239502,216,1258.01,233.012,"Pictures_Onset",197.005,"09","Healthy",9,80,80,2,"no","down","Left",0,"FL","FS",17,"down",486,1,"Students09"
66,0.381358325481415,0.453725039958954,-57.8637466430664,149.990753173828,47.7540016174316,315.327333333333,1507.67466666667,515.674666666667,"Pictures_Onset",479.667666666667,"09","Healthy",9,80,80,2,"no","down","Left",0,"FL","FS",17,"down",486,1,"Students09"
66,0.409187495708466,0.463145822286606,-44.6489601135254,147.625839233398,46.8950004577637,116.007,1872.998,848,"Pictures_Onset",811.993,"09","Healthy",9,80,80,2,"no","down","Left",0,"FL","FS",17,"down",486,1,"Students09"
66,0.648183405399323,0.457791656255722,68.1728286743164,148.9716796875,47.3840866088867,315.993,2090.01,1065.012,"Pictures_Onset",1029.005,"09","Sugary",9,80,80,2,"no","down","Left",0,"FL","FS",17,"down",486,1,"Students09"
66,0.633507966995239,0.467722177505493,61.2491264343262,146.489669799805,46.4813537597656,333.004,2439.002,1414.004,"Pictures_Onset",1377.997,"09","Sugary",9,80,80,2,"no","down","Left",0,"FL","FS",17,"down",486,1,"Students09"
66,0.64709085226059,0.475515156984329,67.6527328491211,144.548477172852,45.774543762207,166.334333333333,2805.67166666667,1813.67166666667,"Pictures_Onset",1777.66466666667,"09","Sugary",9,80,80,2,"no","down","Left",0,"FL","FS",17,"down",486,1,"Students09"
67,0.379708349704742,0.466550022363663,-58.6063346862793,146.772598266602,46.5833358764648,316.992,1273.011,250.009,"Pictures_Onset",212.006,"09","Sugary",9,80,80,3,"no","up","Right",0,"FS","FL",17,"up",589,1,"Students09"
67,0.64472222328186,0.482592582702637,66.5229644775391,142.728698730469,45.1111145019531,132.992,1722.01,699.008,"Pictures_Onset",661.005,"09","Healthy",9,80,80,3,"no","up","Right",0,"FS","FL",17,"up",589,1,"Students09"
67,0.644469678401947,0.475333333015442,66.3969650268555,144.560150146484,45.7798500061035,166.004,1888.998,865.996,"Pictures_Onset",827.993,"09","Healthy",9,80,80,3,"no","up","Right",0,"FS","FL",17,"up",589,1,"Students09"
67,0.659855604171753,0.465655535459518,73.6722183227539,146.988677978516,46.6624488830566,231.987,2089.011,1066.009,"Pictures_Onset",1028.006,"09","Healthy",9,80,80,3,"no","up","Right",0,"FS","FL",17,"up",589,1,"Students09"
67,0.639697015285492,0.491681784391403,64.1277313232422,140.475601196289,44.2918128967285,166.003,2355.008,1332.006,"Pictures_Onset",1294.003,"09","Healthy",9,80,80,3,"no","up","Right",0,"FS","FL",17,"up",589,1,"Students09"
67,0.654444515705109,0.461377769708633,71.0815505981445,148.045562744141,47.0480003356934,233.012,2720.998,1697.996,"Pictures_Onset",1659.993,"09","Healthy",9,80,80,3,"no","up","Right",0,"FS","FL",17,"up",589,1,"Students09"
68,0.376190483570099,0.473809510469437,-60.2658348083496,144.943450927734,45.9184532165527,216,1559.002,529.997,"Pictures_Onset",497.997,"09","Healthy",9,80,80,4,"no","up","Right",1,"FL","FS",17,"up",479,1,"Students09"
68,0.630441188812256,0.457196086645126,59.7637252807617,149.089218139648,47.4274559020996,264.999,1858.995,829.99,"Pictures_Onset",797.99,"09","Sugary",9,80,80,4,"no","up","Right",1,"FL","FS",17,"up",479,1,"Students09"
68,0.649424254894257,0.451318174600601,68.7501449584961,150.55712890625,47.9621238708496,166.334333333333,2157.67166666667,1161.66466666667,"Pictures_Onset",1129.66466666667,"09","Sugary",9,80,80,4,"no","up","Right",1,"FL","FS",17,"up",479,1,"Students09"
68,0.648261845111847,0.454928576946259,68.1078491210938,149.610717773438,47.6164283752441,100.325333333333,2357.67166666667,1361.66466666667,"Pictures_Onset",1329.66466666667,"09","Sugary",9,80,80,4,"no","up","Right",1,"FL","FS",17,"up",479,1,"Students09"
68,0.629152238368988,0.46324634552002,59.1360168457031,147.609176635742,46.8878288269043,366.669666666667,2490.995,1461.99,"Pictures_Onset",1429.99,"09","Sugary",9,80,80,4,"no","up","Right",1,"FL","FS",17,"up",479,1,"Students09"
69,0.376999974250793,0.484512835741043,-59.9039726257324,142.297439575195,44.9537162780762,199.002,1318.003,282.995,"Pictures_Onset",256.998,"09","Sugary",9,80,80,2,"no","down","Left",1,"FS","FL",18,"down",373,1,"Students09"
69,0.396076858043671,0.465294897556305,-50.9253807067871,147.065002441406,46.688720703125,200,1550.003,514.995,"Pictures_Onset",488.998,"09","Sugary",9,80,80,2,"no","down","Left",1,"FS","FL",18,"down",373,1,"Students09"
69,0.631195664405823,0.483347803354263,60.1210136413574,142.561447143555,45.0513076782227,366.004,1832.998,797.99,"Pictures_Onset",771.993,"09","Healthy",9,80,80,2,"no","down","Left",1,"FS","FL",18,"down",373,1,"Students09"
69,0.617318212985992,0.50068187713623,53.5548439025879,138.241516113281,43.4772720336914,166.004,2232.998,1197.99,"Pictures_Onset",1171.993,"09","Healthy",9,80,80,2,"no","down","Left",1,"FS","FL",18,"down",373,1,"Students09"
69,0.373357146978378,0.483142852783203,-61.6333312988281,142.592987060547,45.0630989074707,216.332333333333,2481.66466666667,1479.65566666667,"Pictures_Onset",1453.65866666667,"09","Sugary",9,80,80,2,"no","down","Left",1,"FS","FL",18,"down",373,1,"Students09"
69,0.372288882732391,0.476566642522812,-62.0625534057617,144.231674194336,45.6586647033691,232.331333333334,2731.67466666667,1729.66466666667,"Pictures_Onset",1703.66766666667,"09","Sugary",9,80,80,2,"no","down","Left",1,"FS","FL",18,"down",373,1,"Students09"
70,0.380277782678604,0.475097179412842,-58.3158264160156,144.630828857422,45.804027557373,182.657666666667,1337.011,300.006,"Pictures_Onset",276.006,"09","Healthy",9,80,80,3,"no","down","Left",0,"FL","FS",18,"down",822,1,"Students09"
70,0.642651498317719,0.469560593366623,65.5271911621094,146.031524658203,46.312801361084,348.992,1603.008,566.003,"Pictures_Onset",542.003,"09","Sugary",9,80,80,3,"no","down","Left",0,"FL","FS",18,"down",822,1,"Students09"
70,0.662884652614594,0.475333273410797,75.1428146362305,144.543960571289,45.7703857421875,200.013,1984.998,947.993,"Pictures_Onset",923.993,"09","Sugary",9,80,80,3,"no","down","Left",0,"FL","FS",18,"down",822,1,"Students09"
70,0.365774929523468,0.481624990701675,-65.1788177490234,142.990173339844,45.2067489624023,316.007,2302.003,1264.998,"Pictures_Onset",1240.998,"09","Healthy",9,80,80,3,"no","down","Left",0,"FL","FS",18,"down",822,1,"Students09"
70,0.350015163421631,0.481106013059616,-72.5693893432617,143.101211547852,45.2454566955566,166.656666666667,2651.008,1614.003,"Pictures_Onset",1590.003,"09","Healthy",9,80,80,3,"no","down","Left",0,"FL","FS",18,"down",822,1,"Students09"
70,0.351333320140839,0.489777773618698,-72.0251846313477,140.973327636719,44.4740753173828,132.992,2851.008,1814.003,"Pictures_Onset",1790.003,"09","Healthy",9,80,80,3,"no","down","Left",0,"FL","FS",18,"down",822,1,"Students09"
71,0.388333320617676,0.485349953174591,-54.6348342895508,142.062835693359,44.8698348999023,149.99,1274.01,250.01,"Pictures_Onset",213.005,"09","Sugary",9,80,80,4,"no","up","Right",0,"FS","FL",18,"up",562,1,"Students09"
71,0.619305610656738,0.484600037336349,54.5257797241211,142.260223388672,44.9417152404785,483.661666666667,1523.008,499.008,"Pictures_Onset",462.003,"09","Healthy",9,80,80,4,"no","up","Right",0,"FS","FL",18,"up",562,1,"Students09"
71,0.371027737855911,0.474472254514694,-62.740550994873,144.792221069336,45.8633308410645,183.001,2090.01,1066.01,"Pictures_Onset",1029.005,"09","Sugary",9,80,80,4,"no","up","Right",0,"FS","FL",18,"up",562,1,"Students09"
71,0.376007944345474,0.484857141971588,-60.3288917541504,142.220550537109,44.9272270202637,331.993,2306.01,1282.01,"Pictures_Onset",1245.005,"09","Sugary",9,80,80,4,"no","up","Right",0,"FS","FL",18,"up",562,1,"Students09"
72,0.375354170799255,0.477104187011719,-60.6624984741211,144.128662109375,45.6201057434082,248,1267.994,234.996,"Pictures_Onset",206.989,"09","Healthy",9,80,80,1,"no","up","Right",1,"FL","FS",18,"up",1202,1,"Students09"
72,0.645351827144623,0.490444451570511,66.777587890625,140.800918579102,44.4098129272461,282.995,1599.002,566.004,"Pictures_Onset",537.997,"09","Sugary",9,80,80,1,"no","up","Right",1,"FL","FS",18,"up",1202,1,"Students09"
72,0.622456192970276,0.472912222146988,56.0079040527344,145.198608398438,46.0106964111328,299.008,1915.994,882.996,"Pictures_Onset",854.989,"09","Sugary",9,80,80,1,"no","up","Right",1,"FL","FS",18,"up",1202,1,"Students09"
72,0.388547629117966,0.479404777288437,-54.4833335876465,143.590118408203,45.4263038635254,216.998,2297.997,1264.999,"Pictures_Onset",1236.992,"09","Healthy",9,80,80,1,"no","up","Right",1,"FL","FS",18,"up",1202,1,"Students09"
72,0.354535132646561,0.486938625574112,-70.4896545410156,141.674468994141,44.7272796630859,300.006,2580.992,1547.994,"Pictures_Onset",1519.987,"09","Healthy",9,80,80,1,"no","up","Right",1,"FL","FS",18,"up",1202,1,"Students09"
73,0.385000050067902,0.480250000953674,-56.168888092041,143.357971191406,45.3402786254883,282.995,1265.997,216.999,"Pictures_Onset",204.992,"09","Sugary",9,80,80,3,"no","down","Left",1,"FS","FL",19,"down",628,1,"Students09"
73,0.384714275598526,0.473047584295273,-56.2571411132812,145.174285888672,46.0014305114746,100.338333333333,1581.65866666667,566.657666666667,"Pictures_Onset",554.650666666667,"09","Sugary",9,80,80,3,"no","down","Left",1,"FS","FL",19,"down",628,1,"Students09"
73,0.634124934673309,0.471736162900925,61.5083427429199,145.510406494141,46.1248588562012,183.002,1764.992,715.994,"Pictures_Onset",703.987,"09","Healthy",9,80,80,3,"no","down","Left",1,"FS","FL",19,"down",628,1,"Students09"
73,0.641297698020935,0.494404792785645,64.8994064331055,139.799163818359,44.0456008911133,216,1981.99,932.992,"Pictures_Onset",920.985,"09","Healthy",9,80,80,3,"no","down","Left",1,"FS","FL",19,"down",628,1,"Students09"
73,0.638888895511627,0.503611087799072,63.8672142028809,137.467956542969,43.1974067687988,133.337333333334,2230.65666666667,1214.65766666667,"Pictures_Onset",1202.65066666667,"09","Healthy",9,80,80,3,"no","down","Left",1,"FS","FL",19,"down",628,1,"Students09"
73,0.356816709041595,0.483933359384537,-69.4008331298828,142.449996948242,45.010498046875,148.992,2480.998,1432,"Pictures_Onset",1419.993,"09","Sugary",9,80,80,3,"no","down","Left",1,"FS","FL",19,"down",628,1,"Students09"
73,0.39140909910202,0.45736363530159,-53.0475730895996,149.094543457031,47.4299964904785,167.002,2812.992,1763.994,"Pictures_Onset",1751.987,"09","Sugary",9,80,80,3,"no","down","Left",1,"FS","FL",19,"down",628,1,"Students09"
74,0.368388891220093,0.481486111879349,-63.9427795410156,143.027786254883,45.2215270996094,183.333333333333,1251.66166666667,249.664666666667,"Pictures_Onset",224.653666666667,"09","Healthy",9,80,80,4,"no","down","Left",0,"FL","FS",19,"down",720,1,"Students09"
74,0.616148114204407,0.491000026464462,52.9781532287598,140.664367675781,44.3601837158203,282.009,1651.994,616,"Pictures_Onset",590.989,"09","Sugary",9,80,80,4,"no","down","Left",0,"FL","FS",19,"down",720,1,"Students09"
74,0.651687502861023,0.475291609764099,69.8595809936523,144.617279052734,45.7991676330566,248.998,1968,932.006,"Pictures_Onset",906.995,"09","Sugary",9,80,80,4,"no","down","Left",0,"FL","FS",19,"down",720,1,"Students09"
74,0.381283342838287,0.48076668381691,-57.8221664428711,143.218338012695,45.2903327941895,150.003,2384,1348.006,"Pictures_Onset",1322.995,"09","Healthy",9,80,80,4,"no","down","Left",0,"FL","FS",19,"down",720,1,"Students09"
74,0.365299969911575,0.496800035238266,-65.4679183959961,139.217315673828,43.8335800170898,315.993,2567.002,1531.008,"Pictures_Onset",1505.997,"09","Healthy",9,80,80,4,"no","down","Left",0,"FL","FS",19,"down",720,1,"Students09"
75,0.389666676521301,0.467666655778885,-53.9328231811523,146.483200073242,46.4780807495117,200.998,1255.002,232,"Pictures_Onset",193.997,"09","Sugary",9,80,80,1,"no","up","Right",0,"FS","FL",19,"up",505,1,"Students09"
75,0.414606064558029,0.450712114572525,-42.2306060791016,150.722885131836,48.0215187072754,167.002,1504.998,481.996,"Pictures_Onset",443.993,"09","Sugary",9,80,80,1,"no","up","Right",0,"FS","FL",19,"up",505,1,"Students09"
75,0.636948704719543,0.467782020568848,62.8950004577637,146.451278686523,46.4665374755859,200.999,1770.995,747.993,"Pictures_Onset",709.99,"09","Healthy",9,80,80,1,"no","up","Right",0,"FS","FL",19,"up",505,1,"Students09"
75,0.642548620700836,0.496576309204102,65.4379119873047,139.24382019043,43.8435401916504,382.656666666666,2005.005,982.003,"Pictures_Onset",944,"09","Healthy",9,80,80,1,"no","up","Right",0,"FS","FL",19,"up",505,1,"Students09"
75,0.644666731357574,0.447055548429489,66.4752807617188,151.655410766602,48.3619422912598,182.989,2421.005,1398.003,"Pictures_Onset",1360,"09","Healthy",9,80,80,1,"no","up","Right",0,"FS","FL",19,"up",505,1,"Students09"
75,0.377911776304245,0.473343133926392,-59.483039855957,145.085189819336,45.970100402832,265.997,2704,1680.998,"Pictures_Onset",1642.995,"09","Sugary",9,80,80,1,"no","up","Right",0,"FS","FL",19,"up",505,1,"Students09"
76,0.378140985965729,0.483525633811951,-59.3466644287109,142.511932373047,45.0320510864258,199.002,1316.006,268.006,"Pictures_Onset",255.001,"09","Healthy",9,80,80,2,"no","up","Right",1,"FL","FS",19,"up",679,1,"Students09"
76,0.366410225629807,0.477897435426712,-64.8603820800781,143.924865722656,45.548210144043,200,1548.006,500.006,"Pictures_Onset",487.001,"09","Healthy",9,80,80,2,"no","up","Right",1,"FL","FS",19,"up",679,1,"Students09"
76,0.662214338779449,0.461428493261337,74.7804718017578,148.042373657227,47.0466651916504,332.007,1864.998,816.998,"Pictures_Onset",803.993,"09","Sugary",9,80,80,2,"no","up","Right",1,"FL","FS",19,"up",679,1,"Students09"
76,0.632219254970551,0.474070161581039,60.5971031188965,144.916488647461,45.9071960449219,299.008,2264,1216,"Pictures_Onset",1202.995,"09","Sugary",9,80,80,2,"no","up","Right",1,"FL","FS",19,"up",679,1,"Students09"
76,0.394653916358948,0.475910305976868,-51.5717964172363,144.451156616211,45.7385902404785,200,2663.002,1615.002,"Pictures_Onset",1601.997,"09","Healthy",9,80,80,2,"no","up","Right",1,"FL","FS",19,"up",679,1,"Students09"
77,0.624968707561493,0.462979137897491,57.2469787597656,147.647491455078,46.9010429382324,249.997,1296,266.01,"Pictures_Onset",234.995,"09","Healthy",9,80,80,4,"no","down","Left",1,"FS","FL",20,"down",588,1,"Students09"
77,0.382431328296661,0.48638242483139,-57.3268585205078,141.80744934082,44.777156829834,267.008,1677.99,648,"Pictures_Onset",616.985,"09","Sugary",9,80,80,4,"no","down","Left",1,"FS","FL",20,"down",588,1,"Students09"
77,0.366986125707626,0.50255560874939,-64.6705551147461,137.781814575195,43.3108367919922,183.001,1977.997,948.007,"Pictures_Onset",916.992,"09","Sugary",9,80,80,4,"no","down","Left",1,"FS","FL",20,"down",588,1,"Students09"
77,0.639370322227478,0.480777740478516,63.9585151672363,143.18815612793,45.2796287536621,133.005,2260.992,1231.002,"Pictures_Onset",1199.987,"09","Healthy",9,80,80,4,"no","down","Left",1,"FS","FL",20,"down",588,1,"Students09"
77,0.641600012779236,0.477233320474625,65.0220031738281,144.137359619141,45.6236610412598,232.999,2426.995,1397.005,"Pictures_Onset",1365.99,"09","Healthy",9,80,80,4,"no","down","Left",1,"FS","FL",20,"down",588,1,"Students09"
77,0.637745141983032,0.452872544527054,63.266773223877,150.188034057617,47.8272552490234,266.01,2693.99,1664,"Pictures_Onset",1632.985,"09","Healthy",9,80,80,4,"no","down","Left",1,"FS","FL",20,"down",588,1,"Students09"
78,0.38296303153038,0.468820989131927,-57.0866661071777,146.205154418945,46.3770027160645,881.997,1240,200,"Pictures_Onset",178.995,"09","Healthy",9,80,80,1,"no","down","Left",0,"FL","FS",20,"down",624,1,"Students09"
78,0.646264731884003,0.464215666055679,67.2352905273438,147.362548828125,46.7983283996582,265.997,2354.995,1314.995,"Pictures_Onset",1293.99,"09","Sugary",9,80,80,1,"no","down","Left",0,"FL","FS",20,"down",624,1,"Students09"
78,0.641714334487915,0.504158675670624,65.1379318237305,137.378494262695,43.16357421875,331.993,2655.002,1615.002,"Pictures_Onset",1593.997,"09","Sugary",9,80,80,1,"no","down","Left",0,"FL","FS",20,"down",624,1,"Students09"
79,0.387128174304962,0.451410293579102,-55.1184616088867,150.53434753418,47.9528198242188,199.987,1298.01,266.01,"Pictures_Onset",237.005,"09","Sugary",9,80,80,2,"no","up","Right",0,"FS","FL",20,"up",766,1,"Students09"
79,0.652133285999298,0.46686664223671,69.9915618896484,146.651565551758,46.5385589599609,232.653666666667,1698.01,666.01,"Pictures_Onset",637.005,"09","Healthy",9,80,80,2,"no","up","Right",0,"FS","FL",20,"up",766,1,"Students09"
79,0.656111121177673,0.465388923883438,71.9679641723633,147.033508300781,46.6777763366699,132.992,1964.006,932.006,"Pictures_Onset",903.001,"09","Healthy",9,80,80,2,"no","up","Right",0,"FS","FL",20,"up",766,1,"Students09"
79,0.620388925075531,0.483305543661118,55.0313873291016,142.589721679688,45.0613861083984,182.989,2131.008,1099.008,"Pictures_Onset",1070.003,"09","Healthy",9,80,80,2,"no","up","Right",0,"FS","FL",20,"up",766,1,"Students09"
79,0.6458420753479,0.458719313144684,67.0464935302734,148.714202880859,47.291934967041,300.006,2345.997,1313.997,"Pictures_Onset",1284.992,"09","Healthy",9,80,80,2,"no","up","Right",0,"FS","FL",20,"up",766,1,"Students09"
79,0.648963034152985,0.464814811944962,68.5244445800781,147.201477050781,46.7400016784668,133.005,2680,1648,"Pictures_Onset",1618.995,"09","Healthy",9,80,80,2,"no","up","Right",0,"FS","FL",20,"up",766,1,"Students09"
80,0.56287032365799,0.494333386421204,27.8533325195312,139.799072265625,44.0455513000488,131.993,1107.994,66.9959999999999,"Pictures_Onset",46.9889999999998,"09","Sugary",9,80,80,3,"no","up","Right",1,"FL","FS",20,"up",453,1,"Students09"
80,0.61858332157135,0.486208289861679,54.1435394287109,141.829071044922,44.7836456298828,249.997,1306.995,265.997,"Pictures_Onset",245.99,"09","Sugary",9,80,80,3,"no","up","Right",1,"FL","FS",20,"up",453,1,"Students09"
80,0.623190522193909,0.495357185602188,56.3657150268555,139.553085327148,43.9569053649902,100.007,1589.99,548.992,"Pictures_Onset",528.985,"09","Sugary",9,80,80,3,"no","up","Right",1,"FL","FS",20,"up",453,1,"Students09"
80,0.369121193885803,0.472136408090591,-63.6598472595215,145.405624389648,46.0860595703125,166.656666666667,1905.997,864.999,"Pictures_Onset",844.992,"09","Healthy",9,80,80,3,"no","up","Right",1,"FL","FS",20,"up",453,1,"Students09"
80,0.386124968528748,0.45259165763855,-55.5602531433105,150.251342773438,47.8503265380859,316.338333333334,2222.65666666667,1214.65766666667,"Pictures_Onset",1194.65066666667,"09","Healthy",9,80,80,3,"no","up","Right",1,"FL","FS",20,"up",453,1,"Students09"
